Subject TrialNum SetSize Grid_Pos1_ACC Grid_Pos2_ACC Grid_Pos3_ACC Grid_Pos4_ACC Grid_Pos5_ACC Grid_Pos1_RT Grid_Pos2_RT Grid_Pos3_RT Grid_Pos4_RT Grid_Pos5_RT SumACC_Grid Pos1_ACC_SecTask Pos2_ACC_SecTask Pos3_ACC_SecTask Pos4_ACC_SecTask Pos5_ACC_SecTask Pos6_ACC_SecTask Pos7_ACC_SecTask Pos8_ACC_SecTask Pos9_ACC_SecTask Pos10_ACC_SecTask Pos1_RT_SecTask Pos2_RT_SecTask Pos3_RT_SecTask Pos4_RT_SecTask Pos5_RT_SecTask Pos6_RT_SecTask Pos7_RT_SecTask Pos8_RT_SecTask Pos9_RT_SecTask Pos10_RT_SecTask SumACC_SecTask IIP IOP DIP DIOP NPLs Misses
4 1 5 1 1 1 1 1 3.4217 1.6757 1.9490 7.3921 0.5608 1 1 1 1 0 1 1 1 1 0 1 0.7161 0.6792 0.7338 1.0268 0.6612 0.5490 0.7463 0.8454 1.0415 0.6022 8.000000e-01 5 0 0 0 0 0 0 0 0 0 
4 2 5 1 1 1 1 1 2.7633 1.0458 0.4316 0.6058 0.5156 1 1 1 1 1 1 1 1 0 1 1 0.8212 0.7894 0.7134 0.8710 1.2001 0.6164 0.7776 0.9775 0.7655 0.8943 9.000000e-01 5 0 0 0 0 0 0 0 0 0 
4 3 5 1 1 1 1 1 2.2208 3.2693 3.6578 0.9798 0.8407 1 1 1 1 1 0 1 1 1 1 1 1.0516 0.9844 0.7168 0.8504 1.2303 0.8270 1.0305 0.8021 1.1309 0.5712 9.000000e-01 5 0 0 0 0 0 0 0 0 0 
4 4 5 1 1 1 1 1 4.4905 2.9910 0.5772 2.0039 3.5588 1 1 1 1 1 1 0 1 1 1 1 1.0134 0.6624 0.8848 0.9012 0.8158 1.0865 0.8245 1.2207 0.6295 1.1864 9.000000e-01 5 0 0 0 0 0 0 0 0 0 
4 5 5 1 1 1 1 1 5.0101 2.7327 1.7489 1.3274 0.3009 1 1 1 1 1 1 1 1 1 1 1 0.8854 0.8181 0.6971 0.6486 0.9217 0.7014 0.8371 0.7924 0.6620 1.3629 1 5 0 0 0 0 0 0 0 0 0 
4 6 5 1 1 1 1 1 7.8778 0.1793 0.1069 0.0008 1.2858 1 1 1 1 1 1 1 1 1 1 1 0.7374 0.5171 1.2142 0.8098 0.8549 0.7060 0.7455 0.7476 0.7050 1.0406 1 5 0 0 0 0 0 0 0 0 0 
4 7 5 1 1 1 1 1 1.6931 0.4857 1.2033 0.5248 0.5223 1 1 1 1 1 1 0 1 1 1 1 0.8593 1.1866 0.6135 1.1098 0.9599 0.8137 0.7583 0.7400 0.9165 0.8613 9.000000e-01 5 0 0 0 0 0 0 0 0 0 
4 8 5 1 1 1 1 1 1.5542 3.8375 0.2168 1.5172 0.0026 1 1 1 1 1 1 1 1 1 1 1 0.5978 1.4305 0.7884 0.6915 0.7472 0.8621 1.1201 0.7344 0.6510 0.7494 1 5 0 0 0 0 0 0 0 0 0 
4 9 5 1 1 1 1 1 2.2063 0.3469 4.0826 0.1611 0.2287 1 1 0 1 1 0 0 1 1 1 1 0.9485 0.8643 0.8372 0.7072 1.1298 1.1696 1.1574 0.7610 0.8155 0.7811 7.000000e-01 5 0 0 0 0 0 0 0 0 0 
4 10 5 1 1 1 1 1 2.4222 0.4170 0.3473 0.2086 0.3934 1 1 1 1 1 1 0 0 1 1 1 1.0014 0.6748 0.7720 0.7009 0.9932 0.9386 0.6461 0.7598 0.7266 0.7865 8.000000e-01 5 0 0 0 0 0 0 0 0 0 
4 11 5 1 1 0 0 0 4.6764 3.5970 4.4737 3.6354 3.8592 4.000000e-01 1 1 1 1 1 1 1 1 1 1 0.9077 0.7240 0.8411 0.7628 0.8657 0.8102 1.1867 1.2075 0.8892 0.7167 1 2 2 0 0 1 0 0 0 0 0 
4 12 5 1 1 0 0 0 7.8743 1.3899 1.1163 2.1937 9.1054 4.000000e-01 1 1 1 1 0 1 1 1 1 1 0.7859 0.9189 1.3255 0.7754 1.1000 0.8046 0.7598 0.5622 1.0889 0.8446 9.000000e-01 2 2 0 0 1 0 0 0 0 0 
4 13 5 1 1 1 1 1 5.0903 0.0104 5.3636 0.2084 0.0001 1 1 1 1 1 1 1 1 1 1 1 0.7754 1.2529 1.1485 0.6571 0.7373 0.6917 0.5474 0.7396 0.6675 0.7761 1 5 0 0 0 0 0 0 0 0 0 
4 14 5 1 1 1 1 1 2.3422 0.2538 0.3026 0.4278 0.4949 1 0 1 1 1 1 1 1 1 1 1 0.9819 0.5831 0.9327 0.8673 0.8140 0.6627 0.7598 0.6815 0.6102 0.7131 9.000000e-01 5 0 0 0 0 0 0 0 0 0 
4 15 5 1 1 1 1 1 2.4709 0.1399 2.0179 1.1323 0.4571 1 1 1 1 1 1 1 1 1 1 1 0.9786 0.7395 0.6772 0.7688 0.8252 0.6601 0.6372 0.9340 0.7182 1.4571 1 5 0 0 0 0 0 0 0 0 0 
4 16 5 0 1 0 1 1 3.7375 1.4516 5.0224 0.3370 0.2103 6.000000e-01 1 1 1 0 1 1 1 1 1 1 0.7164 0.7784 0.6820 0.9540 0.8459 0.7007 1.0095 0.8486 0.6711 0.8499 9.000000e-01 3 0 1 0 1 0 0 0 0 0 
4 17 5 1 1 1 1 1 9.4384 1.7105 3.2693 3.0333 1.9004 1 1 1 1 1 1 1 1 1 1 1 0.9638 1.0281 0.8287 1.0138 0.7448 0.6068 0.9625 0.7317 1.2320 0.6944 1 5 0 0 0 0 0 0 0 0 0 
4 18 5 1 1 1 1 1 4.3698 0.0282 0.4025 2.4859 0.4497 1 1 1 1 1 1 1 1 0 1 1 0.9226 1.0446 1.2723 0.8169 0.5846 1.1455 0.6989 0.9190 0.6657 0.7400 9.000000e-01 5 0 0 0 0 0 0 0 0 0 
4 19 5 1 1 1 1 1 3.6666 0.0920 2.1369 0.0005 0.7760 1 0 1 1 1 1 1 0 1 1 1 0.9887 0.7331 1.2993 0.5933 0.7565 0.6403 0.8639 0.6786 0.7062 0.8516 8.000000e-01 5 0 0 0 0 0 0 0 0 0 
4 20 5 1 1 1 1 1 3.4888 0.4600 0.2362 0.3751 0.8558 1 1 1 0 1 1 1 1 1 1 1 0.7676 0.7835 1.0022 0.7761 1.2384 0.7266 0.7769 1.0747 0.8614 0.7009 9.000000e-01 5 0 0 0 0 0 0 0 0 0 
4 21 5 1 1 1 1 1 3.0585 1.7597 1.2436 0.0188 0.2505 1 1 1 0 1 1 1 1 1 1 1 0.9045 1.0883 0.7023 0.7675 0.7186 0.6482 0.8630 1.0173 1.3954 0.7038 9.000000e-01 5 0 0 0 0 0 0 0 0 0 
4 22 5 1 1 1 1 1 2.1058 0.3899 0.4182 0.2995 0.3491 1 1 1 1 1 1 1 1 1 1 1 1.0788 0.6227 0.9228 1.0771 0.6742 0.8539 0.9000 0.6032 0.8865 0.7195 1 5 0 0 0 0 0 0 0 0 0 
4 23 5 1 1 1 1 1 5.8070 3.3246 0.5827 2.7690 0.3875 1 1 1 1 1 1 1 1 1 0 1 0.8188 0.9312 1.0843 1.1353 0.8272 0.7355 0.8511 1.1450 1.0566 1.1398 9.000000e-01 5 0 0 0 0 0 0 0 0 0 
4 24 5 1 1 1 1 1 5.3041 1.3790 1.6496 0.1272 0.0200 1 1 1 1 0 0 1 1 1 1 1 1.2975 0.8520 0.7404 1.0828 0.7882 1.3397 0.9723 0.7874 0.9511 0.6319 8.000000e-01 5 0 0 0 0 0 0 0 0 0 
4 25 5 1 1 1 1 1 4.7378 0.0706 0.3904 0.3973 1.0610 1 0 1 1 1 1 1 1 0 1 1 0.9995 0.6458 0.8490 0.6434 1.2799 1.0043 0.7676 0.9417 0.8569 1.2542 8.000000e-01 5 0 0 0 0 0 0 0 0 0 
4 26 5 1 1 1 1 1 7.0283 1.9886 0.4543 0.2476 0.4069 1 1 1 1 1 1 1 1 1 1 1 0.8192 0.7070 0.8547 0.7148 0.7815 1.0265 0.7656 0.8354 0.6547 0.8528 1 5 0 0 0 0 0 0 0 0 0 
4 27 5 1 1 1 1 1 2.5023 0.8391 0.4338 0.2734 0.3208 1 1 1 1 1 1 1 1 1 1 1 1.0099 0.7415 0.6727 0.7342 0.8364 0.7603 0.9342 0.8184 0.7141 0.6427 1 5 0 0 0 0 0 0 0 0 0 
4 28 5 1 1 1 1 1 1.4784 0.5324 3.3728 1.1381 0.5119 1 1 1 1 1 1 1 1 0 1 1 0.7751 0.5875 0.6551 1.0831 0.7967 0.7440 0.6757 1.1868 0.8341 1.0981 9.000000e-01 5 0 0 0 0 0 0 0 0 0 
4 29 5 1 1 1 1 1 5.7266 0.0021 0.6812 0.4253 0.5359 1 1 1 1 1 1 1 1 1 1 1 0.7974 0.7023 1.1282 0.6722 0.9190 0.7545 0.7365 0.8409 0.6859 0.8194 1 5 0 0 0 0 0 0 0 0 0 
4 30 5 1 1 1 1 1 4.8127 2.6963 0.3969 0.5226 2.8606 1 1 1 1 1 1 1 1 1 1 1 0.9247 0.6785 0.6461 0.8444 0.7773 0.7182 0.8600 0.8994 0.9555 1.1483 1 5 0 0 0 0 0 0 0 0 0 
4 31 5 1 1 1 1 1 1.2539 0.2635 1.4405 0.0325 0.3774 1 1 1 1 1 1 0 0 1 1 1 0.9154 0.6544 0.8505 1.0394 0.9054 1.1078 0.9896 0.8525 0.9399 0.8226 8.000000e-01 5 0 0 0 0 0 0 0 0 0 
4 32 5 1 1 1 1 1 1.1795 2.5219 0.0797 0.0164 0.2402 1 1 1 1 1 1 1 1 1 1 1 0.7026 1.0392 0.6987 0.7174 0.9283 0.8955 0.9127 0.7352 0.8735 0.7954 1 5 0 0 0 0 0 0 0 0 0 
4 33 5 1 1 1 1 1 3.1722 0.1223 0.2122 0.0259 0.3127 1 1 1 1 1 1 1 1 1 1 1 0.6889 0.7372 0.7370 0.6754 0.7335 0.6118 1.3268 0.5873 0.6033 0.9128 1 5 0 0 0 0 0 0 0 0 0 
4 34 5 1 1 1 1 1 1.3219 0.1452 0.6495 0.5584 0.4196 1 1 1 1 1 1 1 1 1 1 1 0.6193 0.9014 0.7893 1.1934 0.7414 0.7184 0.6147 0.7150 0.8138 0.9348 1 5 0 0 0 0 0 0 0 0 0 
4 35 5 1 1 1 1 1 2.6165 3.3563 1.5384 0.2790 0.0256 1 1 1 1 1 1 1 1 1 1 1 0.6795 0.6542 1.0840 0.9550 0.7339 0.6783 0.8176 0.6949 0.7930 1.1121 1 5 0 0 0 0 0 0 0 0 0 
4 36 5 1 1 1 1 1 2.7665 2.4172 4.9075 3.1901 0.7414 1 1 1 1 1 0 1 1 1 1 1 0.7221 0.6635 0.7674 0.9017 1.3103 0.5729 0.6871 0.6593 0.7160 0.6645 9.000000e-01 5 0 0 0 0 0 0 0 0 0 
4 37 5 1 1 1 1 1 4.6972 1.2129 0.3516 0.1777 0.8676 1 1 0 1 1 1 1 1 1 1 1 0.9363 0.6632 0.6476 1.0005 0.8785 0.7730 0.7692 0.6460 0.6824 0.8938 9.000000e-01 5 0 0 0 0 0 0 0 0 0 
4 38 5 1 1 1 1 1 2.8937 0.1772 1.4748 0.4994 0.2735 1 1 1 1 1 1 1 1 1 1 1 1.0244 0.8028 0.6904 1.0028 0.6679 0.7917 0.5415 0.8164 0.8104 0.9762 1 5 0 0 0 0 0 0 0 0 0 
4 39 5 1 1 1 1 1 1.0101 2.4050 1.8903 0.3069 0.3745 1 1 1 1 1 1 1 1 1 1 1 0.6708 0.7894 0.7883 0.7533 0.5423 0.7495 0.7808 0.7767 1.1456 0.5931 1 5 0 0 0 0 0 0 0 0 0 
4 40 5 1 1 1 1 1 6.1214 0.7016 0.2595 1.7115 1.3524 1 1 1 1 1 1 1 1 1 1 1 0.9359 0.6756 0.9725 0.6423 0.7366 0.6413 0.6976 0.6734 0.7860 0.7551 1 5 0 0 0 0 0 0 0 0 0 
4 41 5 1 1 1 1 1 3.4654 0.2419 0.1903 0.3285 0.3899 1 1 1 1 1 1 1 1 1 1 1 0.7616 0.6806 0.6230 0.7911 0.5126 0.6953 0.6279 0.9240 0.7690 0.6662 1 5 0 0 0 0 0 0 0 0 0 
4 42 5 1 1 1 1 1 5.7189 0.0463 0.2716 0.0611 0.1797 1 1 1 1 1 0 1 1 1 0 1 0.8182 0.6654 0.9418 1.1089 1.0367 1.2587 0.7027 0.8008 1.1652 0.6752 8.000000e-01 5 0 0 0 0 0 0 0 0 0 
4 43 5 1 1 1 1 1 3.7669 2.6887 0.8040 3.7169 0.0001 1 1 1 1 1 1 1 1 0 1 1 0.8954 0.6115 0.8337 1.1438 0.8121 1.0732 0.8951 1.3318 0.7633 0.7975 9.000000e-01 5 0 0 0 0 0 0 0 0 0 
4 44 5 1 1 0 0 1 122.9003 1.0443 75.4585 2.9355 4.4327 6.000000e-01 1 1 1 1 0 0 0 0 0 0 1.1149 1.1069 0.7931 0.8769 0.6789 1.7000 1.7000 1.7000 1.7000 1.7000 4.000000e-01 3 0 0 0 2 0 0 0 0 0 
4 45 5 1 1 1 1 1 4.8496 0.4372 0.2493 0.4265 0.8934 1 1 1 1 1 1 1 1 1 1 1 0.7832 0.7602 1.3539 0.7365 0.8186 0.6352 1.1830 0.6896 0.7526 0.7738 1 5 0 0 0 0 0 0 0 0 0 
4 46 5 1 1 1 1 1 2.3859 0.3881 4.6147 0.3632 6.9208 1 1 1 1 1 1 1 1 1 1 1 1.2424 0.8070 0.7925 0.9991 0.8904 0.7501 0.9297 1.1069 0.7185 0.6726 1 5 0 0 0 0 0 0 0 0 0 
4 47 5 1 1 1 1 1 3.8095 0.4234 5.0681 0.0152 0.0961 1 0 1 1 1 1 1 1 1 1 1 0.8607 0.7059 0.7020 0.9360 0.8183 0.8288 0.5987 0.6678 0.8416 0.5887 9.000000e-01 5 0 0 0 0 0 0 0 0 0 
4 48 5 1 1 1 1 1 2.2620 2.7723 0.3069 0.2358 0.7163 1 0 1 1 1 1 1 1 1 1 1 0.8006 0.8108 0.8807 0.8021 0.7315 0.8502 0.5046 0.6349 1.0150 1.0513 9.000000e-01 5 0 0 0 0 0 0 0 0 0 
4 49 5 1 1 1 1 1 1.8096 2.0679 1.7560 0.2976 8.6202 1 1 1 1 1 1 0 1 1 1 1 0.6575 0.8455 1.2542 0.7590 0.6615 0.9100 0.6839 0.6683 0.8103 0.6234 9.000000e-01 5 0 0 0 0 0 0 0 0 0 
4 50 5 1 1 1 1 1 1.9522 1.1704 8.6220 1.0062 0.0121 1 1 1 1 1 0 1 1 1 1 1 0.8700 0.7405 0.7217 1.2872 1.1461 0.8625 0.7697 0.9689 0.5139 0.5732 9.000000e-01 5 0 0 0 0 0 0 0 0 0 
4 51 5 1 1 1 1 1 3.0580 0.7538 0.6798 0.3826 0.2395 1 1 1 1 1 1 1 1 1 1 1 0.6824 0.6105 0.5476 0.5963 0.8229 1.1015 0.8724 0.5449 0.8457 0.6590 1 5 0 0 0 0 0 0 0 0 0 
4 52 5 1 1 1 1 1 1.8542 0.0963 0.5696 0.0225 0.2554 1 1 1 1 1 1 0 1 1 1 1 0.7331 0.6537 0.6336 0.8216 0.6656 0.6297 0.6178 0.6330 0.9687 1.2063 9.000000e-01 5 0 0 0 0 0 0 0 0 0 
4 53 5 0 1 1 1 1 2.6755 1.4320 0.0004 0.5138 0.2288 8.000000e-01 1 1 1 1 1 1 1 1 1 1 0.6798 0.8984 0.6565 0.9280 0.7236 0.6342 0.5631 0.7559 0.9071 0.5655 1 4 0 0 1 0 0 0 0 0 0 
4 54 5 1 1 1 1 1 3.0325 2.8395 0.1854 11.3663 0.4610 1 1 1 1 0 1 1 1 1 1 1 0.8417 0.9763 0.5756 0.9566 1.0335 0.8171 0.9814 0.7383 0.6848 0.6973 9.000000e-01 5 0 0 0 0 0 0 0 0 0 
4 55 5 1 1 1 1 1 4.4944 0.1037 0.1637 1.1887 0.9524 1 1 1 1 1 1 1 1 1 1 1 0.7658 0.6488 0.5507 0.6452 0.8100 0.5742 0.5729 0.8750 0.6622 0.5363 1 5 0 0 0 0 0 0 0 0 0 
4 56 5 1 1 1 1 1 4.1312 0.3362 1.5511 0.0004 0.0002 1 0 1 1 1 1 1 1 1 1 1 1.0783 0.8522 1.1496 0.7095 0.6435 0.6634 0.6016 0.7403 0.8225 0.6164 9.000000e-01 5 0 0 0 0 0 0 0 0 0 
4 57 5 1 1 1 1 1 3.0073 0.0005 0.1908 0.0005 0.5005 1 1 1 1 1 1 1 1 1 1 1 0.9443 0.8772 0.7150 0.9869 0.7120 0.6200 0.8153 1.2571 0.8725 0.6910 1 5 0 0 0 0 0 0 0 0 0 
4 58 5 1 1 1 1 1 2.1777 2.7949 0.4195 0.4376 0.0961 1 1 0 1 1 1 1 1 1 1 1 0.8136 1.0705 0.6815 0.8995 0.6561 0.8305 0.5456 0.7901 1.0020 0.7354 9.000000e-01 5 0 0 0 0 0 0 0 0 0 
4 59 5 1 1 1 1 1 6.5231 0.0004 0.2654 1.3623 0.1898 1 1 1 1 1 1 1 1 1 1 1 1.0755 0.5755 0.5016 0.6711 0.8103 1.0129 0.8167 0.8321 1.2877 0.5501 1 5 0 0 0 0 0 0 0 0 0 
4 60 5 1 1 1 1 1 1.6543 0.6176 0.2636 0.0001 0.4320 1 0 1 1 1 1 1 1 1 1 1 1.7000 0.9347 0.7205 0.6825 0.9254 1.1099 0.6359 0.8186 0.6742 0.8692 9.000000e-01 5 0 0 0 0 0 0 0 0 0 
4 61 5 1 1 1 1 1 3.9434 1.0367 0.4296 0.1727 0.1492 1 1 1 1 1 1 1 1 1 1 1 0.9463 0.6958 0.6720 0.6224 0.9690 0.7772 0.8506 0.7332 0.7093 0.5348 1 5 0 0 0 0 0 0 0 0 0 
4 62 5 1 1 1 1 1 4.6723 0.1623 0.0004 0.0001 1.7407 1 1 1 0 1 1 1 1 1 1 1 0.8291 1.2443 0.6034 0.6583 0.7151 0.5751 0.6678 1.3434 1.3376 0.9658 9.000000e-01 5 0 0 0 0 0 0 0 0 0 
4 63 5 1 1 1 1 1 1.8934 0.5916 0.4662 0.2009 0.4487 1 1 1 1 1 1 1 1 0 1 1 0.8438 0.9301 0.7911 0.8530 1.0717 0.9061 0.8190 0.7009 0.7328 0.8034 9.000000e-01 5 0 0 0 0 0 0 0 0 0 
4 64 5 1 1 1 1 1 3.3372 0.0004 1.0311 0.2072 0.1966 1 1 1 1 1 1 1 1 1 1 1 0.8859 0.6393 0.8203 0.5918 0.8122 0.5811 0.8053 0.5335 0.6205 0.8432 1 5 0 0 0 0 0 0 0 0 0 
4 65 5 1 1 1 1 1 1.3378 0.3079 0.4320 0.1261 0.0186 1 1 1 1 1 1 1 1 0 1 1 1.0832 0.7011 0.7515 0.9723 0.9697 0.8012 0.6003 0.7955 0.6364 0.7156 9.000000e-01 5 0 0 0 0 0 0 0 0 0 
4 66 5 1 1 1 1 1 2.3732 0.6550 0.2029 0.2300 0.4361 1 1 1 1 1 1 1 1 1 1 1 1.1622 0.7630 0.9245 0.7789 0.7435 0.6145 0.6880 0.7243 0.7589 1.0427 1 5 0 0 0 0 0 0 0 0 0 
4 67 5 1 1 1 1 1 15.3590 0.0004 0.0001 0.2471 0.2368 1 1 1 1 1 1 1 1 1 1 0 1.3209 0.6381 0.8783 0.7902 0.6765 0.6385 0.8792 0.5721 1.2600 1.4210 9.000000e-01 5 0 0 0 0 0 0 0 0 0 
4 68 5 1 1 1 1 1 4.6761 0.2672 0.2395 0.0002 0.1798 1 1 1 1 1 1 1 1 1 1 1 0.7717 0.6912 0.6621 0.6354 0.6334 0.8549 0.6206 0.5638 0.6219 0.8767 1 5 0 0 0 0 0 0 0 0 0 
4 69 5 1 1 1 1 1 3.9851 0.3830 0.7829 0.3606 0.2780 1 1 1 1 1 1 1 1 1 1 1 0.7998 0.6877 0.8997 0.8926 0.8467 0.9289 0.7520 0.7342 0.7326 0.8809 1 5 0 0 0 0 0 0 0 0 0 
4 70 5 1 1 1 1 1 1.8613 1.9712 0.5916 0.7926 0.5747 1 1 1 1 1 1 0 1 1 1 1 0.8575 0.7712 0.6844 0.9660 0.6982 0.8249 0.9542 1.1279 0.8826 0.7022 9.000000e-01 5 0 0 0 0 0 0 0 0 0 
4 71 5 1 1 1 1 1 3.3265 1.8366 0.5113 0.3180 0.5074 1 1 1 1 1 1 1 1 1 1 1 0.7870 0.9417 0.7189 0.7414 0.7032 0.5676 0.7095 0.6529 0.6823 0.5040 1 5 0 0 0 0 0 0 0 0 0 
4 72 5 1 1 1 1 1 3.4845 2.9857 3.0020 0.3514 0.4588 1 1 1 1 1 1 0 1 1 1 1 0.7306 0.8236 0.5967 0.6101 0.7187 1.0456 0.6084 0.8854 0.7342 0.6564 9.000000e-01 5 0 0 0 0 0 0 0 0 0 
4 73 5 1 1 1 1 1 1.1690 0.4504 0.0690 2.0297 0.2532 1 1 1 1 1 1 1 1 1 1 1 0.9376 0.8203 0.7699 0.6937 0.9948 1.1054 0.8756 0.8789 0.9863 0.6453 1 5 0 0 0 0 0 0 0 0 0 
4 74 5 1 0 0 0 0 7.6177 4.3245 0.6122 0.0786 0.2713 2.000000e-01 1 1 1 1 0 1 1 1 1 1 1.1964 0.8500 1.0281 0.8223 0.9682 0.7410 1.2322 1.2194 0.8812 0.6596 9.000000e-01 1 3 0 1 0 0 0 0 0 0 
4 75 5 1 1 1 1 1 1.3730 0.7946 0.6220 0.6331 2.4253 1 1 1 1 1 1 0 1 1 1 1 1.1395 0.6831 0.8241 0.8441 0.6686 0.7915 0.5657 0.9822 0.5601 0.6437 9.000000e-01 5 0 0 0 0 0 0 0 0 0 
4 76 5 1 1 1 1 1 6.4598 6.8434 0.3500 0.3559 0.2234 1 1 1 1 1 0 1 1 1 1 1 0.8975 1.2405 0.7929 0.7705 1.3200 0.7034 0.7185 1.0933 1.0905 0.6296 9.000000e-01 5 0 0 0 0 0 0 0 0 0 
4 77 5 1 1 1 1 1 2.5127 0.2899 2.4921 0.1690 0.0414 1 0 1 1 1 1 1 0 1 1 1 0.8265 0.7004 0.7052 0.7164 0.7216 0.9994 0.8939 0.6038 0.6478 0.5945 8.000000e-01 5 0 0 0 0 0 0 0 0 0 
4 78 5 1 1 1 1 1 5.0974 0.0004 0.1076 1.4725 1.2548 1 1 1 1 1 1 1 1 0 1 1 0.8116 0.6161 1.0762 0.6934 0.7801 0.6396 1.2389 0.6353 0.6054 0.7928 9.000000e-01 5 0 0 0 0 0 0 0 0 0 
4 79 5 1 1 1 1 1 1.7868 1.2179 0.3139 0.0004 0.1747 1 1 1 1 1 1 1 1 1 1 1 0.7143 0.7163 0.5751 0.8846 0.6351 0.6464 0.6750 0.8301 1.5166 0.5659 1 5 0 0 0 0 0 0 0 0 0 
4 80 5 1 1 1 1 1 4.4827 0.1039 0.0001 0.2797 0.0004 1 1 1 1 1 1 1 1 1 1 1 0.6622 0.7114 0.7653 1.1125 0.6719 0.8380 0.9915 0.5860 0.6095 0.6102 1 5 0 0 0 0 0 0 0 0 0 
