Subject TrialNum SetSize Grid_Pos1_ACC Grid_Pos2_ACC Grid_Pos3_ACC Grid_Pos4_ACC Grid_Pos5_ACC Grid_Pos1_RT Grid_Pos2_RT Grid_Pos3_RT Grid_Pos4_RT Grid_Pos5_RT SumACC_Grid Pos1_ACC_SecTask Pos2_ACC_SecTask Pos3_ACC_SecTask Pos4_ACC_SecTask Pos5_ACC_SecTask Pos6_ACC_SecTask Pos7_ACC_SecTask Pos8_ACC_SecTask Pos9_ACC_SecTask Pos10_ACC_SecTask Pos1_RT_SecTask Pos2_RT_SecTask Pos3_RT_SecTask Pos4_RT_SecTask Pos5_RT_SecTask Pos6_RT_SecTask Pos7_RT_SecTask Pos8_RT_SecTask Pos9_RT_SecTask Pos10_RT_SecTask SumACC_SecTask IIP IOP DIP DIOP NPLs Misses
2 1 5 1 1 1 1 1 5.1720 0.7213 1.4494 3.0762 0.3911 1 1 1 1 1 1 1 1 1 1 1 0.7139 0.6118 0.6699 0.7967 0.5812 0.8766 1.1263 0.7591 0.7634 0.6475 1 5 0 0 0 0 0 0 0 0 0 
2 2 5 1 1 1 1 1 2.9297 1.6825 1.9366 2.0290 1.3844 1 1 1 1 1 1 1 1 1 1 1 0.8680 0.9057 1.6293 0.9320 0.8138 0.8147 0.7077 0.7176 0.8074 0.8107 1 5 0 0 0 0 0 0 0 0 0 
2 3 5 1 1 1 1 1 2.9397 1.7938 0.5895 5.6765 0.9457 1 1 1 1 1 1 1 1 1 1 1 0.7100 0.8097 1.2090 0.5414 0.6738 0.5809 0.8701 0.7165 0.6108 0.8888 1 5 0 0 0 0 0 0 0 0 0 
2 4 5 1 1 1 1 1 9.7007 1.2411 1.7842 0.6777 0.4892 1 1 1 1 1 1 1 1 1 1 1 0.7080 0.6975 0.8818 0.8843 0.4895 0.5053 0.6271 0.6054 0.5274 0.5795 1 5 0 0 0 0 0 0 0 0 0 
2 5 5 1 1 1 1 1 7.5310 1.2798 1.5973 2.9428 11.0324 1 1 1 1 1 1 1 1 0 1 1 0.7321 0.6559 0.6808 0.7868 0.6333 0.8078 0.7539 1.7000 0.7852 0.6777 9.000000e-01 5 0 0 0 0 0 0 0 0 0 
2 6 5 1 1 1 1 1 3.5281 4.3273 1.0965 2.6039 2.4081 1 1 1 0 1 1 1 1 1 1 1 0.6914 0.7804 0.6259 0.6539 0.7281 0.9957 0.7962 0.9750 0.6794 1.0014 9.000000e-01 5 0 0 0 0 0 0 0 0 0 
2 7 5 1 1 1 1 1 2.1536 3.5076 2.0628 14.9172 0.6033 1 1 1 0 1 1 1 1 1 1 1 0.8721 0.6317 1.7000 0.7384 0.6076 0.5466 0.7883 0.7378 0.7215 0.5500 9.000000e-01 5 0 0 0 0 0 0 0 0 0 
2 8 5 1 1 1 1 1 1.8022 4.4153 1.2489 4.9233 0.3264 1 1 1 1 1 0 1 1 1 1 1 0.6638 0.6358 0.5094 0.5046 0.9552 0.5141 0.9551 0.7423 0.5406 0.6925 9.000000e-01 5 0 0 0 0 0 0 0 0 0 
2 9 5 1 1 1 1 1 2.0165 2.0435 13.1188 1.1387 0.9577 1 1 1 1 1 1 1 1 1 1 1 0.6108 1.0560 0.6865 0.6560 0.7021 0.6035 0.7794 0.8031 0.7220 0.7668 1 5 0 0 0 0 0 0 0 0 0 
2 10 5 1 1 1 1 1 3.0000 4.2782 0.6872 2.4281 0.6824 1 1 0 1 1 1 1 1 1 1 1 0.4565 1.1266 0.7621 0.6042 0.5998 0.7634 0.6341 0.6553 0.7692 1.0859 9.000000e-01 5 0 0 0 0 0 0 0 0 0 
2 11 5 1 1 1 1 1 3.1539 1.6919 0.5025 0.5916 0.4049 1 1 1 1 1 1 1 1 1 1 1 0.7460 0.8938 0.8251 0.6048 0.8224 0.6814 0.8387 0.7753 0.6594 0.6905 1 5 0 0 0 0 0 0 0 0 0 
2 12 5 1 1 1 1 1 3.4302 0.7243 0.2958 0.3015 0.3784 1 1 1 1 1 1 1 1 1 1 1 1.0948 0.7055 0.6381 0.5108 0.5967 1.2083 1.3333 0.5731 0.6748 1.0030 1 5 0 0 0 0 0 0 0 0 0 
2 13 5 1 1 1 1 1 2.2781 2.9737 3.4235 6.4175 0.6533 1 1 1 1 1 1 1 1 1 1 1 0.5278 1.1241 0.6829 0.6077 1.0983 0.6420 0.5245 0.7020 1.2252 1.3078 1 5 0 0 0 0 0 0 0 0 0 
2 14 5 1 1 1 1 1 2.6471 2.1943 2.3706 0.4276 0.3326 1 1 1 1 1 1 0 1 1 1 1 0.8081 0.6260 1.2112 0.7452 0.6875 1.7000 0.8511 0.9669 0.6527 0.7109 9.000000e-01 5 0 0 0 0 0 0 0 0 0 
2 15 5 1 1 1 1 1 1.4618 1.5391 1.8739 0.7636 0.3506 1 1 1 1 1 1 1 1 1 1 1 0.8969 0.7395 1.5013 0.6195 0.5775 1.4705 0.6313 0.6951 0.9772 0.7995 1 5 0 0 0 0 0 0 0 0 0 
2 16 5 1 1 1 1 1 5.1018 0.6274 2.4839 2.8263 5.6640 1 1 1 1 1 1 1 1 1 1 1 0.5613 0.5710 0.6964 0.6234 0.5079 0.5399 0.5473 0.7826 0.7223 0.6871 1 5 0 0 0 0 0 0 0 0 0 
2 17 5 0 0 0 0 0 143.8300 0.4486 0.2731 0.2921 0.4115 0 0 0 0 0 0 0 0 0 0 0 1.7000 1.7000 1.7000 1.7000 1.7000 1.7000 1.7000 1.7000 1.7000 1.7000 0 0 2 0 2 1 0 0 0 0 0 
2 18 5 1 1 1 1 1 2.8341 0.8642 2.5751 2.0759 3.6240 1 1 1 1 1 1 1 1 1 1 1 0.7940 0.5967 0.5727 1.0060 0.6727 0.7452 0.6190 0.7539 0.8865 0.5861 1 5 0 0 0 0 0 0 0 0 0 
2 19 5 1 1 1 1 1 3.1245 2.2667 0.4457 1.0355 1.2012 1 1 1 1 1 1 1 1 0 1 1 0.8432 0.7176 0.9704 1.1372 1.2877 0.8193 0.8866 0.7538 1.0507 0.9136 9.000000e-01 5 0 0 0 0 0 0 0 0 0 
2 20 5 1 1 1 1 1 1.9547 2.0208 5.6595 2.5576 2.8768 1 1 1 1 1 1 1 1 1 1 1 0.8755 0.6851 0.6576 0.6131 0.6777 0.9864 0.7440 0.6174 0.6732 0.7318 1 5 0 0 0 0 0 0 0 0 0 
2 21 5 1 1 1 1 1 4.5457 0.3611 0.3531 0.4574 0.3432 1 1 1 1 1 1 1 1 1 1 1 0.6147 0.5902 0.5720 0.9519 0.8866 0.7052 0.6500 0.8734 0.6458 0.6065 1 5 0 0 0 0 0 0 0 0 0 
2 22 5 1 1 1 1 1 1.6903 2.0303 0.4252 0.3678 0.3189 1 1 1 1 1 1 1 1 1 1 1 0.6129 0.7569 0.5904 0.7417 0.7844 0.6563 1.1331 0.6679 0.7714 1.0369 1 5 0 0 0 0 0 0 0 0 0 
2 23 5 1 1 1 1 1 2.4280 1.3889 0.6860 0.5299 0.3589 1 1 1 1 1 1 1 1 1 1 1 0.8117 0.9006 0.5708 0.7803 0.6385 0.6759 0.6243 0.5320 0.6981 0.6262 1 5 0 0 0 0 0 0 0 0 0 
2 24 5 1 1 1 1 1 2.5163 5.2021 1.2527 0.9110 0.3755 1 1 1 1 1 1 1 1 1 1 1 0.5689 0.7429 0.9882 0.7215 0.6464 0.7826 0.5561 0.5296 0.5936 0.5354 1 5 0 0 0 0 0 0 0 0 0 
2 25 5 1 1 1 1 1 4.4531 7.1966 0.5658 0.3609 0.2341 1 1 1 1 1 1 1 1 1 1 1 0.5270 0.7031 0.5123 0.4565 0.7430 0.4946 0.6379 0.6314 0.7521 1.0339 1 5 0 0 0 0 0 0 0 0 0 
2 26 5 1 1 1 1 1 2.1685 5.2671 11.4013 0.3253 1.5827 1 1 1 1 1 1 1 1 1 1 1 0.7905 0.6437 0.8337 1.1040 0.7367 0.6671 0.6430 0.9193 0.5827 0.6008 1 5 0 0 0 0 0 0 0 0 0 
2 27 5 1 1 1 1 1 1.4340 6.9828 1.7195 0.3718 0.3266 1 0 1 1 1 1 1 1 1 1 1 0.5975 1.1369 0.9304 0.9153 0.7355 0.6274 0.6798 0.5983 0.6527 0.6416 9.000000e-01 5 0 0 0 0 0 0 0 0 0 
2 28 5 1 1 1 1 1 7.3762 2.1691 4.6980 1.6234 1.7585 1 1 1 0 1 1 1 1 1 1 1 0.5660 0.5818 0.9507 1.1242 0.5982 0.7063 0.5546 0.6892 0.8658 0.7065 9.000000e-01 5 0 0 0 0 0 0 0 0 0 
2 29 5 1 1 1 1 0 4.5783 2.2301 0.6646 2.8013 7.5500 8.000000e-01 1 1 1 1 1 1 1 1 1 1 0.5429 0.7269 1.1318 1.6469 0.8614 0.7580 0.6352 0.8984 1.2736 0.6489 1 4 0 1 0 0 0 0 0 0 0 
2 30 5 1 1 1 1 1 2.5760 1.8580 2.1243 1.3216 0.4883 1 1 1 1 1 1 1 1 1 1 1 0.7363 0.5849 0.7258 0.6988 0.6204 0.5287 0.5531 0.7623 0.7149 0.6851 1 5 0 0 0 0 0 0 0 0 0 
2 31 5 1 1 1 1 1 1.1773 1.2726 0.3495 0.2841 0.3042 1 1 1 1 0 1 1 1 1 1 1 0.6973 1.3655 0.5453 0.5919 0.6955 1.2824 0.6174 0.7151 0.7064 0.7311 9.000000e-01 5 0 0 0 0 0 0 0 0 0 
2 32 5 1 1 1 1 1 4.0616 2.0246 2.1368 0.4166 0.5960 1 1 1 1 1 1 1 1 1 1 1 0.6084 0.6675 0.5137 1.1255 0.7410 0.7755 1.3052 0.8433 1.1713 0.8280 1 5 0 0 0 0 0 0 0 0 0 
2 33 5 1 1 1 1 1 1.3584 2.3620 9.0960 0.4307 0.2291 1 1 1 0 1 1 1 1 1 1 1 1.1232 0.5903 0.6340 0.6211 0.5898 0.5094 0.6165 0.5324 0.5935 0.9156 9.000000e-01 5 0 0 0 0 0 0 0 0 0 
2 34 5 1 1 1 1 1 3.5598 0.4760 0.9697 2.3652 2.6545 1 1 1 1 1 1 1 1 1 1 1 0.6395 0.5715 0.6000 0.6127 0.8562 0.9794 0.6854 1.1050 1.1685 1.3073 1 5 0 0 0 0 0 0 0 0 0 
2 35 5 1 1 1 1 1 4.6911 1.4369 2.2729 11.5808 2.8304 1 1 1 1 1 1 1 1 1 1 1 0.6085 0.6416 0.6835 0.7193 0.7154 0.6705 0.5416 1.0362 0.9250 0.8476 1 5 0 0 0 0 0 0 0 0 0 
2 36 5 1 1 1 1 1 3.7391 0.8868 0.2205 0.0744 0.3878 1 1 1 1 1 1 1 1 1 1 1 0.7385 0.5669 0.5382 0.6069 0.6664 0.7088 0.7502 0.6627 0.9727 0.7790 1 5 0 0 0 0 0 0 0 0 0 
2 37 5 1 1 1 1 1 4.8107 3.0587 2.9096 1.1250 7.2129 1 1 1 1 1 1 1 1 1 1 1 0.7298 0.6067 0.8576 0.5347 0.9062 0.7035 0.6957 1.2549 1.2048 1.3590 1 5 0 0 0 0 0 0 0 0 0 
2 38 5 1 1 1 1 1 2.4433 3.6691 0.2928 2.5404 1.5969 1 1 1 1 1 1 0 1 1 1 1 0.5983 0.6254 0.7090 0.5955 0.7699 1.7000 1.3040 0.5883 0.6946 0.6654 9.000000e-01 5 0 0 0 0 0 0 0 0 0 
2 39 5 1 1 1 1 1 4.9474 3.3770 3.8386 0.8667 6.9507 1 1 0 1 1 1 1 1 1 1 1 0.7177 0.9983 0.7212 0.7974 1.3226 0.6241 0.5885 1.3872 0.6042 0.6968 9.000000e-01 5 0 0 0 0 0 0 0 0 0 
2 40 5 1 1 1 1 1 6.0382 0.4077 2.8931 0.4839 0.2396 1 1 1 1 1 1 1 0 1 1 1 0.9049 0.6096 0.5777 0.5870 0.7340 0.6468 0.8163 0.5898 0.7739 0.7331 9.000000e-01 5 0 0 0 0 0 0 0 0 0 
2 41 5 1 1 1 1 1 2.4954 1.0293 0.4349 1.5443 1.1166 1 1 1 1 1 1 1 1 1 1 1 0.5794 0.6382 0.5698 0.5753 0.6707 0.5807 0.6936 0.6590 0.6176 0.6830 1 5 0 0 0 0 0 0 0 0 0 
2 42 5 1 1 1 1 1 2.3185 2.1413 1.1497 0.2786 0.3303 1 1 1 1 1 1 1 1 1 1 1 0.5930 0.5761 0.5859 0.6869 0.7163 0.5784 0.8761 0.8967 0.7257 0.6400 1 5 0 0 0 0 0 0 0 0 0 
2 43 5 1 1 1 1 1 1.6823 0.8131 1.6554 4.6692 3.4601 1 1 1 1 1 1 1 1 1 1 1 0.8268 0.5564 0.5543 0.5545 0.5476 0.5479 0.7524 0.6040 0.6153 0.6689 1 5 0 0 0 0 0 0 0 0 0 
2 44 5 1 1 1 1 1 4.9579 1.7228 2.2734 0.9140 1.7708 1 1 1 1 1 1 1 1 0 1 1 1.1643 0.6031 0.6027 0.8712 0.7344 0.6956 0.6362 1.7000 0.5733 1.0364 9.000000e-01 5 0 0 0 0 0 0 0 0 0 
2 45 5 1 1 1 1 1 4.3714 2.1030 2.1031 0.2808 0.4187 1 1 1 1 1 0 1 1 1 1 1 0.6364 0.6174 0.9430 0.8938 0.7629 0.5516 0.5110 0.8197 0.6214 0.5460 9.000000e-01 5 0 0 0 0 0 0 0 0 0 
2 46 5 1 1 1 1 1 4.8350 0.8454 1.1069 2.5197 0.3984 1 1 1 1 1 1 1 1 1 1 1 0.5672 0.7045 0.7873 0.7170 0.6888 0.6381 0.6354 0.8504 0.5769 0.6496 1 5 0 0 0 0 0 0 0 0 0 
2 47 5 1 1 1 1 1 8.4205 0.5248 0.3274 0.4927 0.3985 1 1 1 1 1 1 1 1 1 1 1 0.6036 0.5098 0.5617 0.6209 0.7571 0.5252 0.6179 0.4627 0.9645 0.5632 1 5 0 0 0 0 0 0 0 0 0 
2 48 5 1 1 1 1 1 13.1481 0.6007 0.2511 0.3305 0.5781 1 1 0 1 1 1 1 1 1 1 1 0.6657 1.2483 0.9743 0.6082 0.7807 0.5496 0.6300 0.5263 0.9024 0.6994 9.000000e-01 5 0 0 0 0 0 0 0 0 0 
2 49 5 1 1 1 1 1 3.3962 0.3193 0.4667 0.4889 7.1544 1 1 1 1 1 1 1 1 1 1 1 0.7017 0.6017 0.7753 0.4988 0.5901 0.6550 0.8763 0.6660 0.6237 1.4373 1 5 0 0 0 0 0 0 0 0 0 
2 50 5 1 1 1 1 1 3.9061 0.2836 0.7251 6.1695 0.2259 1 1 1 1 1 1 1 1 1 1 1 0.6005 0.5924 0.7286 0.6924 0.5830 0.5041 0.5579 0.9282 0.6335 0.8642 1 5 0 0 0 0 0 0 0 0 0 
2 51 5 1 1 1 1 1 6.6257 4.1489 0.3840 0.3264 0.0790 1 1 1 1 1 1 1 1 1 1 1 0.6463 0.8256 0.5723 0.5255 0.5020 0.5960 1.2591 0.6426 0.6933 0.6938 1 5 0 0 0 0 0 0 0 0 0 
2 52 5 1 1 1 1 1 4.5510 0.6780 1.3917 0.2440 0.4990 1 1 1 1 1 1 1 1 1 1 1 0.6432 0.5676 0.7741 0.5736 0.5564 0.5803 0.7026 0.6654 0.6306 0.6186 1 5 0 0 0 0 0 0 0 0 0 
2 53 5 1 1 1 1 1 1.8836 7.3339 0.5129 0.3755 0.3021 1 1 1 1 1 1 1 1 1 1 1 0.5500 1.1296 0.5759 0.5681 0.6175 0.8715 0.6161 0.6213 0.8999 0.7665 1 5 0 0 0 0 0 0 0 0 0 
2 54 5 1 1 1 1 0 2.2760 0.3475 0.4997 1.7916 28.1558 8.000000e-01 1 1 1 1 1 1 1 1 1 1 0.6468 0.6442 1.0222 0.6174 0.6637 1.0155 0.6012 0.7051 0.8163 0.6904 1 4 0 1 0 0 0 0 0 0 0 
2 55 5 1 1 1 1 1 3.6801 3.3974 0.4825 0.3994 4.1764 1 1 1 1 1 1 1 1 1 1 1 1.2908 0.9285 0.8758 0.5679 0.5895 0.7888 0.6169 0.7007 0.9052 1.1198 1 5 0 0 0 0 0 0 0 0 0 
2 56 5 1 1 1 1 1 4.3462 1.1364 0.2336 0.2562 0.2552 1 1 1 1 1 1 1 1 1 1 1 0.5025 0.7725 0.7263 0.7188 0.6801 0.5848 0.8477 0.7815 0.7012 0.5739 1 5 0 0 0 0 0 0 0 0 0 
2 57 5 1 1 1 1 1 2.7344 0.3998 1.0586 0.4506 0.3362 1 1 1 1 1 1 1 1 1 1 1 0.5689 0.6496 0.5200 0.7013 1.1236 0.7325 1.2697 1.3005 0.8118 0.8592 1 5 0 0 0 0 0 0 0 0 0 
2 58 5 1 1 1 1 1 6.9000 0.7195 0.3529 0.6096 0.4383 1 1 1 1 1 1 1 1 1 1 1 1.0704 0.6175 0.7904 0.8948 0.6970 0.5636 0.6219 0.5806 0.9265 0.6032 1 5 0 0 0 0 0 0 0 0 0 
2 59 5 1 1 1 1 1 3.1550 0.5098 0.0225 0.8084 0.2869 1 1 1 1 1 1 1 1 1 1 1 0.6377 0.7784 0.7481 0.8201 1.0108 0.5929 0.5474 0.7258 0.7086 1.1151 1 5 0 0 0 0 0 0 0 0 0 
2 60 5 1 1 1 1 1 2.7223 0.3536 0.5043 0.4758 0.4126 1 1 1 1 1 1 1 1 1 1 1 1.0719 0.5507 0.6698 0.5061 0.8285 0.5984 0.7430 0.6285 1.2485 0.4969 1 5 0 0 0 0 0 0 0 0 0 
2 61 5 1 1 1 1 1 4.1265 2.5107 0.3170 0.2944 0.2726 1 1 1 1 1 1 1 1 1 1 1 0.5777 0.7105 0.6664 0.8337 0.6890 0.5661 0.6114 0.5932 0.5374 0.5679 1 5 0 0 0 0 0 0 0 0 0 
2 62 5 1 1 1 1 1 4.5684 0.4345 0.3506 0.4649 0.3123 1 1 1 1 1 1 1 1 1 1 1 0.5477 0.6201 0.5024 0.6189 0.8350 0.5957 0.9169 0.6339 0.5621 0.6920 1 5 0 0 0 0 0 0 0 0 0 
2 63 5 1 1 1 1 1 8.1332 1.4801 0.6570 0.8660 0.2897 1 1 1 1 1 1 1 1 1 1 1 0.7322 0.6066 0.8101 0.6222 0.5310 0.6897 0.6915 1.2256 1.0232 0.6460 1 5 0 0 0 0 0 0 0 0 0 
2 64 5 1 1 1 1 1 2.2029 1.1431 8.2392 0.3128 1.7050 1 1 1 1 0 1 1 1 1 1 1 0.6796 0.5909 0.4925 0.8460 0.5376 0.8198 0.5335 0.6299 0.5852 0.6514 9.000000e-01 5 0 0 0 0 0 0 0 0 0 
2 65 5 1 1 1 1 1 1.5914 0.2911 0.4268 1.7863 8.0297 1 1 1 1 1 1 1 1 1 1 1 1.4776 0.6690 0.9265 0.6563 0.6217 0.5040 0.6362 0.6176 0.7703 1.0212 1 5 0 0 0 0 0 0 0 0 0 
2 66 5 1 1 1 1 1 2.5509 0.5637 0.4559 0.3023 0.2794 1 1 1 1 1 1 1 1 1 1 1 0.6245 0.5987 0.5301 0.7429 0.7547 0.6246 0.6278 0.8216 0.6552 0.6021 1 5 0 0 0 0 0 0 0 0 0 
2 67 5 1 1 1 1 1 3.5872 3.6484 1.9735 1.1295 3.4656 1 1 1 1 1 1 1 1 1 1 1 0.6716 0.7339 0.9064 0.6740 0.7791 0.6858 0.6360 0.6088 0.5371 0.6597 1 5 0 0 0 0 0 0 0 0 0 
2 68 5 1 1 1 1 1 6.7267 1.9923 0.5693 0.2940 7.3142 1 1 1 1 1 1 1 1 1 0 1 0.6932 0.8844 0.7123 0.8400 0.5851 0.7803 0.5599 0.6149 1.2623 0.7937 9.000000e-01 5 0 0 0 0 0 0 0 0 0 
2 69 5 1 1 1 1 1 3.7714 5.4809 0.8866 1.8863 4.0534 1 1 1 1 1 0 1 1 1 1 1 0.6715 0.6025 0.5682 0.5558 0.7394 0.7420 0.7406 1.1406 0.5959 0.7728 9.000000e-01 5 0 0 0 0 0 0 0 0 0 
2 70 5 1 1 1 1 1 2.1773 0.6094 0.5966 0.2750 0.3669 1 1 1 1 1 1 1 1 1 0 1 0.6511 0.7696 0.5914 0.6394 0.5421 0.7638 0.7475 0.5055 0.6926 0.6095 9.000000e-01 5 0 0 0 0 0 0 0 0 0 
2 71 5 1 1 1 1 1 2.9499 2.9597 2.7177 8.5886 3.5949 1 1 0 1 1 1 1 1 1 1 1 0.6147 1.7000 0.7722 0.8598 0.8064 0.5710 0.9939 0.8068 0.6568 0.9808 9.000000e-01 5 0 0 0 0 0 0 0 0 0 
2 72 5 1 1 1 1 1 4.1483 1.7596 1.8957 0.3039 0.2340 1 1 1 1 1 1 1 1 1 1 1 0.6377 0.5255 0.8465 0.5532 0.5476 0.5984 0.8338 0.7251 0.5639 0.5715 1 5 0 0 0 0 0 0 0 0 0 
2 73 5 1 1 1 1 1 1.7708 0.3983 2.9186 1.2587 0.3631 1 1 1 1 1 1 1 1 1 1 1 0.7791 0.5735 0.7182 0.6188 0.8005 0.8415 0.6705 0.6162 0.6148 0.8010 1 5 0 0 0 0 0 0 0 0 0 
2 74 5 1 1 1 1 1 1.9083 3.4022 0.7042 0.7115 0.3425 1 1 1 1 1 1 1 1 1 1 1 0.5904 0.6831 0.8484 0.7739 0.6428 0.6489 0.4989 0.7957 0.8080 0.8730 1 5 0 0 0 0 0 0 0 0 0 
2 75 5 1 1 1 1 1 5.0306 1.5590 0.8910 0.3352 0.2678 1 1 1 1 1 1 1 1 1 1 1 0.7166 0.5707 0.5429 0.5104 0.5654 0.5406 0.6081 0.7391 0.6125 0.6880 1 5 0 0 0 0 0 0 0 0 0 
2 76 5 1 1 1 0 0 2.6373 4.5239 2.6775 7.7281 0.2966 6.000000e-01 1 1 1 1 1 1 1 1 1 0 0.6379 0.6837 0.5649 0.6003 0.6369 0.5699 1.0143 0.6740 0.6418 1.5012 9.000000e-01 3 2 0 0 0 0 0 0 0 0 
2 77 5 1 1 1 1 1 3.4026 0.4191 0.2970 1.3504 0.2960 1 1 1 1 1 1 1 1 1 1 1 0.6793 0.7854 0.7069 0.7338 0.8235 0.8302 0.6346 0.6201 0.5948 0.6020 1 5 0 0 0 0 0 0 0 0 0 
2 78 5 1 1 1 1 1 4.0249 0.6007 0.6339 1.4890 0.2600 1 1 1 1 0 1 1 1 1 1 1 0.6548 0.5436 0.5807 0.5165 0.5997 0.6381 0.6813 0.6009 0.7723 0.9646 9.000000e-01 5 0 0 0 0 0 0 0 0 0 
2 79 5 1 1 1 1 1 4.1461 0.3515 1.4147 1.3571 15.0213 1 1 1 1 1 1 1 1 1 1 1 0.9872 0.8272 0.5908 0.5229 0.6146 0.6731 0.6026 0.5851 0.5912 0.6328 1 5 0 0 0 0 0 0 0 0 0 
2 80 5 1 1 1 1 1 3.9871 3.2476 0.3816 0.5704 0.2345 1 1 1 1 1 1 1 1 1 1 1 0.7423 0.7609 0.7000 0.5719 0.7174 0.9033 0.7178 0.7625 0.6336 0.5515 1 5 0 0 0 0 0 0 0 0 0 
