Subject TrialNum SetSize Grid_Pos1_ACC Grid_Pos2_ACC Grid_Pos3_ACC Grid_Pos4_ACC Grid_Pos5_ACC Grid_Pos1_RT Grid_Pos2_RT Grid_Pos3_RT Grid_Pos4_RT Grid_Pos5_RT SumACC_Grid Pos1_ACC_SecTask Pos2_ACC_SecTask Pos3_ACC_SecTask Pos4_ACC_SecTask Pos5_ACC_SecTask Pos6_ACC_SecTask Pos7_ACC_SecTask Pos8_ACC_SecTask Pos9_ACC_SecTask Pos10_ACC_SecTask Pos1_RT_SecTask Pos2_RT_SecTask Pos3_RT_SecTask Pos4_RT_SecTask Pos5_RT_SecTask Pos6_RT_SecTask Pos7_RT_SecTask Pos8_RT_SecTask Pos9_RT_SecTask Pos10_RT_SecTask SumACC_SecTask IIP IOP DIP DIOP NPLs Misses
5 1 5 1 1 1 0 0 1.9694 4.4891 1.3164 10.1538 0.3105 6.000000e-01 1 1 1 1 1 1 1 1 1 1 0.5913 0.5665 0.8001 0.5443 0.7016 0.6277 0.6891 0.9821 1.0575 1.4765 1 3 1 0 1 0 0 0 0 0 0 
5 2 5 1 1 1 0 0 2.0271 0.5981 3.6082 6.8241 0.9153 6.000000e-01 1 1 1 1 1 1 1 1 1 1 0.5892 0.6482 0.9347 0.8336 0.8695 0.9981 1.2862 0.7141 0.8429 0.7386 1 3 1 0 1 0 0 0 0 0 0 
5 3 5 0 1 1 1 1 2.0707 10.7373 5.6883 1.8931 1.4454 8.000000e-01 1 0 1 1 1 1 1 1 1 1 0.6546 1.3504 0.6587 0.8512 0.8071 0.8943 1.0542 0.8498 1.0996 1.0400 9.000000e-01 4 1 0 0 0 0 0 0 0 0 
5 4 5 1 1 1 1 1 4.8193 5.0868 0.3360 0.2733 0.3512 1 1 1 1 1 1 1 1 1 1 1 0.6068 0.7460 0.7981 0.7457 0.6596 0.6257 0.6876 0.8463 0.8965 0.7395 1 5 0 0 0 0 0 0 0 0 0 
5 5 5 1 1 1 1 1 4.6459 0.5263 0.3852 5.4192 3.3927 1 1 1 1 1 1 1 1 1 1 1 0.7176 0.7051 0.8103 0.6918 0.7506 0.6811 0.6844 1.3348 0.9487 0.9714 1 5 0 0 0 0 0 0 0 0 0 
5 6 5 1 1 1 0 1 2.3363 1.7289 15.0426 0.3339 0.6757 8.000000e-01 1 1 0 1 1 1 1 1 1 1 0.6375 0.5808 0.7826 0.9004 0.6770 0.8118 0.7336 1.6131 0.8128 0.7047 9.000000e-01 4 0 0 1 0 0 0 0 0 0 
5 7 5 1 1 1 1 1 6.3521 0.3673 4.1111 2.1252 0.4460 1 1 1 1 1 1 1 1 1 1 1 0.8485 1.2031 0.7739 0.9489 0.7058 0.8797 0.6513 0.7866 0.8602 0.8401 1 5 0 0 0 0 0 0 0 0 0 
5 8 5 1 1 1 1 1 7.6755 0.3106 0.3251 1.0995 2.2154 1 1 1 1 1 1 1 1 0 1 1 0.7090 0.8003 0.5439 0.7154 1.0438 0.7006 0.9441 0.8622 0.6751 0.7474 9.000000e-01 5 0 0 0 0 0 0 0 0 0 
5 9 5 1 1 1 1 0 11.4230 0.3267 0.7483 7.1142 9.2498 8.000000e-01 1 1 1 1 1 1 1 1 1 1 0.6454 0.7738 0.7199 0.6749 0.7453 0.6074 0.7905 1.0009 0.7525 0.8066 1 4 0 0 1 0 0 0 0 0 0 
5 10 5 1 1 1 1 1 4.1387 2.4997 0.6253 5.7646 0.6176 1 1 1 1 1 1 1 1 1 1 1 0.6675 0.5782 0.8374 0.6672 1.1929 1.0340 1.0838 0.8445 0.7698 0.6670 1 5 0 0 0 0 0 0 0 0 0 
5 11 5 1 1 1 1 1 10.9424 7.9411 3.1021 0.3281 5.2086 1 1 1 1 1 1 1 1 1 0 1 0.5893 0.6285 0.5900 0.6865 0.8665 0.8712 0.7349 1.2633 1.6375 0.9707 9.000000e-01 5 0 0 0 0 0 0 0 0 0 
5 12 5 1 1 1 1 1 2.6905 1.8132 0.5416 0.3166 7.5270 1 1 1 1 0 1 1 0 1 0 1 0.7791 0.9266 0.9026 0.8671 0.8028 0.7628 1.7000 1.3917 0.9301 0.6921 7.000000e-01 5 0 0 0 0 0 0 0 0 0 
5 13 5 1 1 1 1 1 1.6964 0.4726 2.3315 0.9708 3.7857 1 1 1 1 1 1 1 1 0 1 1 0.8986 0.7607 0.7301 0.9300 0.5482 0.9949 0.9563 1.7000 0.6852 0.6338 9.000000e-01 5 0 0 0 0 0 0 0 0 0 
5 14 5 1 1 1 1 1 8.7853 0.3468 0.3136 0.4050 0.2574 1 1 1 1 1 1 1 1 1 0 1 1.3500 0.5345 0.7732 1.0701 0.7458 1.1208 0.6557 0.8487 1.0430 0.7893 9.000000e-01 5 0 0 0 0 0 0 0 0 0 
5 15 5 1 1 1 1 1 2.6054 9.0176 0.3650 0.2866 1.5806 1 1 1 1 1 1 1 1 1 1 1 0.6510 0.6236 0.7737 0.6788 0.8149 0.7256 0.8820 0.6593 0.7630 1.1028 1 5 0 0 0 0 0 0 0 0 0 
5 16 5 1 1 1 1 1 2.2264 1.3409 4.8813 1.0643 16.1437 1 1 1 1 1 1 0 1 1 0 0 0.7886 0.6687 0.6951 0.8667 0.9396 1.0971 1.4807 1.1176 0.7572 1.1902 7.000000e-01 5 0 0 0 0 0 0 0 0 0 
5 17 5 1 1 1 1 1 2.8262 1.1046 1.5877 6.9129 3.2700 1 1 1 1 1 1 1 1 1 1 1 0.8387 0.7161 1.1359 1.4561 1.0574 0.7182 0.8817 0.6581 0.6061 0.5596 1 5 0 0 0 0 0 0 0 0 0 
5 18 5 1 1 1 1 1 5.0299 0.9795 2.1544 2.2022 7.4147 1 1 1 1 1 1 1 1 1 1 1 0.8534 0.7702 0.7420 0.6789 0.9671 0.9819 1.4184 0.6532 0.7388 0.7705 1 5 0 0 0 0 0 0 0 0 0 
5 19 5 1 0 0 0 1 4.4140 0.3888 0.4385 4.5223 3.6460 4.000000e-01 1 1 1 1 1 1 1 1 1 0 0.8302 0.7850 0.5973 0.8126 0.6308 1.1029 0.7728 0.6634 0.6981 1.0593 9.000000e-01 2 1 0 2 0 0 0 0 0 0 
5 20 5 1 1 1 0 1 3.7446 3.8560 6.4446 5.7214 0.2817 8.000000e-01 1 0 1 1 1 1 1 1 1 1 1.1271 0.8552 1.1999 0.7059 0.6136 0.7854 0.7831 0.8524 1.0982 1.6558 9.000000e-01 4 0 0 1 0 0 0 0 0 0 
5 21 5 1 1 1 1 1 7.1158 3.7412 1.1281 0.3142 0.5872 1 1 1 1 1 1 1 0 1 1 1 0.9899 0.6460 0.8681 0.6863 0.8419 1.2750 0.9145 0.7011 1.2688 0.8002 9.000000e-01 5 0 0 0 0 0 0 0 0 0 
5 22 5 1 1 1 1 1 4.0006 1.2402 0.8435 10.2068 0.3001 1 0 1 1 0 1 1 1 1 1 1 0.7930 0.8430 0.6536 1.0069 1.1125 0.7633 1.3502 0.7480 0.8568 0.7892 8.000000e-01 5 0 0 0 0 0 0 0 0 0 
5 23 5 1 1 1 1 1 2.0549 4.7953 0.3020 0.4240 2.1927 1 1 1 1 1 1 1 1 1 1 0 0.6509 0.8250 0.9937 0.6417 0.6421 0.8095 0.7481 0.9400 0.8770 0.8861 9.000000e-01 5 0 0 0 0 0 0 0 0 0 
5 24 5 1 1 1 1 1 6.5610 0.6029 0.5363 0.4283 3.7793 1 1 1 0 1 1 1 1 1 1 1 0.7936 0.6383 1.1463 0.6151 1.2010 0.6632 1.0605 0.7459 1.0384 0.7548 9.000000e-01 5 0 0 0 0 0 0 0 0 0 
5 25 5 1 1 1 1 1 3.9286 5.4393 0.2930 0.3284 7.9773 1 1 1 1 1 1 1 0 1 1 1 0.6846 1.2087 0.9040 0.5631 0.6635 0.6299 1.1172 0.7362 0.6887 0.8177 9.000000e-01 5 0 0 0 0 0 0 0 0 0 
5 26 5 1 1 1 1 1 2.5964 5.2178 0.3312 1.0649 0.3975 1 1 1 1 1 1 1 1 1 1 1 0.7570 0.5540 0.8484 0.6025 0.8006 0.9660 0.8693 0.8405 1.0523 0.8202 1 5 0 0 0 0 0 0 0 0 0 
5 27 5 1 1 1 1 1 4.4044 1.4927 0.7198 0.9414 0.6125 1 1 1 1 1 1 1 1 0 1 1 0.6814 0.5708 0.7026 0.5989 0.6997 0.6595 0.7279 1.0235 0.6611 1.0871 9.000000e-01 5 0 0 0 0 0 0 0 0 0 
5 28 5 1 1 1 1 0 2.0161 1.8689 0.6735 0.3953 17.7535 8.000000e-01 1 1 1 1 1 1 0 1 1 1 0.7954 0.7468 0.7788 0.8496 1.1216 0.9757 1.5609 0.9454 0.6614 0.8213 9.000000e-01 4 0 1 0 0 0 0 0 0 0 
5 29 5 1 1 1 1 1 4.5724 0.4248 0.3305 0.5620 8.8813 1 1 1 0 1 1 1 1 1 1 1 0.6241 0.5747 1.2016 1.1870 0.8744 0.8454 0.8858 0.7564 1.0558 0.5841 9.000000e-01 5 0 0 0 0 0 0 0 0 0 
5 30 5 1 1 1 1 1 3.6111 2.7550 0.7084 3.4585 3.9565 1 1 1 1 1 1 1 1 1 0 1 0.8340 0.8995 0.8896 1.2912 0.7761 1.0415 0.8168 0.8250 0.7975 0.9537 9.000000e-01 5 0 0 0 0 0 0 0 0 0 
5 31 5 1 1 1 1 1 2.1197 1.3529 9.9221 0.4794 0.3005 1 1 1 0 1 1 1 1 1 1 1 0.7318 0.5134 1.3237 0.8051 1.2958 0.7537 0.9698 0.9322 0.8608 0.9646 9.000000e-01 5 0 0 0 0 0 0 0 0 0 
5 32 5 1 1 1 1 1 4.5342 0.6149 4.0557 0.2634 0.0005 1 1 1 1 1 1 1 1 1 1 1 0.8344 0.7454 0.7331 0.7501 0.8467 0.7213 1.6785 1.4268 0.9608 0.7138 1 5 0 0 0 0 0 0 0 0 0 
5 33 5 1 1 1 1 1 7.0291 0.6176 1.1115 0.4600 4.0045 1 1 1 1 1 1 1 1 0 1 1 0.8948 1.0010 0.6854 1.0034 0.7954 0.6123 0.9195 0.8851 0.7672 1.0690 9.000000e-01 5 0 0 0 0 0 0 0 0 0 
5 34 5 1 1 1 1 1 3.8920 11.4443 0.3364 1.1434 0.4037 1 1 1 1 1 1 1 0 0 1 1 0.9207 0.7844 0.6310 0.6808 1.1253 0.7131 1.0730 1.7000 1.0047 1.0506 8.000000e-01 5 0 0 0 0 0 0 0 0 0 
5 35 5 1 1 1 1 1 8.4419 0.4044 4.3615 1.6475 0.6923 1 1 1 1 1 1 1 1 1 1 1 0.7847 0.8411 0.8962 0.9063 1.3818 1.0220 0.7535 1.0525 0.9683 0.6596 1 5 0 0 0 0 0 0 0 0 0 
5 36 5 1 1 1 1 1 3.7249 0.2865 3.9080 1.6038 4.4754 1 1 1 1 1 1 1 1 1 1 1 0.9296 0.6694 0.8838 0.6729 0.9567 0.6555 0.6886 0.5525 0.8558 0.6511 1 5 0 0 0 0 0 0 0 0 0 
5 37 5 1 1 1 1 1 2.9269 3.1729 1.3210 2.4643 1.9062 1 1 1 1 1 1 1 1 1 1 1 0.7529 0.9684 0.9403 0.7143 0.8478 0.7101 0.6892 1.1855 0.9885 0.9773 1 5 0 0 0 0 0 0 0 0 0 
5 38 5 0 1 1 0 1 14.4927 0.3920 0.9089 11.1067 0.4662 6.000000e-01 1 1 1 1 1 1 1 1 1 1 1.3289 0.8671 0.8782 0.7218 1.3301 0.5624 0.5478 0.6437 0.6503 0.8117 1 3 1 0 1 0 0 0 0 0 0 
5 39 5 1 1 1 1 1 5.3996 0.6691 0.3748 0.3060 0.2527 1 1 1 1 1 1 1 1 1 1 1 0.7035 0.6490 0.8916 0.7740 0.6105 1.4675 1.1988 0.6019 0.8246 0.6509 1 5 0 0 0 0 0 0 0 0 0 
5 40 5 1 1 1 1 1 5.3353 2.3917 2.2980 0.3743 0.6874 1 1 1 1 1 1 1 1 1 1 1 0.7186 0.8266 0.8521 0.9010 0.6755 0.6846 0.9025 0.6132 1.0533 0.8642 1 5 0 0 0 0 0 0 0 0 0 
5 41 5 1 1 1 1 1 2.8736 0.3880 0.4933 2.1377 1.2219 1 1 1 1 0 1 1 1 1 1 1 0.8207 0.5757 0.5844 0.7525 0.7893 0.7163 0.6762 0.8069 0.8040 0.6348 9.000000e-01 5 0 0 0 0 0 0 0 0 0 
5 42 5 1 1 1 1 1 3.3596 0.5518 3.2412 0.5464 0.2724 1 1 1 1 1 1 1 1 1 1 1 0.6850 0.8916 0.8333 0.8211 0.8437 0.7455 1.3556 1.0118 1.1030 0.8175 1 5 0 0 0 0 0 0 0 0 0 
5 43 5 1 1 1 1 1 4.2464 0.6156 3.8813 3.7896 0.5894 1 1 1 1 1 1 1 1 1 1 0 0.6147 0.8714 0.6843 0.7957 0.6551 0.7180 0.8185 0.9859 0.6314 0.5470 9.000000e-01 5 0 0 0 0 0 0 0 0 0 
5 44 5 1 1 1 1 1 12.4880 0.9941 2.0689 0.4577 4.4611 1 1 1 1 1 1 0 1 1 1 1 0.7553 0.6952 0.5994 0.6311 0.6477 0.7916 0.8249 0.6132 1.3440 0.8542 9.000000e-01 5 0 0 0 0 0 0 0 0 0 
5 45 5 1 1 0 0 1 9.7572 1.0314 0.3133 1.4815 0.3687 6.000000e-01 1 1 1 1 1 1 1 1 1 1 0.6410 1.0344 0.8469 0.6726 0.5541 0.7125 0.6229 0.6642 1.0049 1.0127 1 3 2 0 0 0 0 0 0 0 0 
5 46 5 1 1 1 1 1 7.1906 4.9752 2.9854 0.2868 0.9208 1 1 1 1 1 1 1 1 1 1 1 0.8332 0.6714 0.7567 0.7943 1.1154 1.0612 0.5649 1.2644 0.7152 0.9054 1 5 0 0 0 0 0 0 0 0 0 
5 47 5 1 1 1 1 1 3.5677 0.9506 10.2566 0.2983 0.5080 1 1 1 1 1 1 1 1 1 1 1 0.9265 0.7282 1.1280 0.9118 0.7552 1.3353 0.9093 1.1814 0.7137 1.5621 1 5 0 0 0 0 0 0 0 0 0 
5 48 5 1 1 1 0 1 8.7634 0.2790 0.8320 4.9122 0.2904 8.000000e-01 1 1 1 1 1 1 1 1 1 1 0.7273 0.7562 0.6552 1.0479 0.6791 0.5302 0.7281 1.2019 0.7091 0.7271 1 4 0 1 0 0 0 0 0 0 0 
5 49 5 1 1 1 0 0 4.5380 0.4397 1.4410 3.5361 2.6201 6.000000e-01 1 1 0 1 1 1 1 1 0 1 0.7316 0.8639 1.2016 1.0291 0.6217 0.8401 1.1448 0.7989 0.8883 0.7805 8.000000e-01 3 2 0 0 0 0 0 0 0 0 
5 50 5 1 1 1 1 1 2.2725 0.6209 4.4628 0.4374 1.7179 1 1 1 1 1 1 1 1 1 0 1 0.8814 0.6899 0.7612 1.0206 1.0683 0.5880 0.7887 0.8239 1.0801 0.7729 9.000000e-01 5 0 0 0 0 0 0 0 0 0 
5 51 5 1 1 1 1 1 7.4613 0.2484 0.3585 1.1972 5.3111 1 1 1 1 1 1 1 1 1 1 1 0.7890 1.6058 0.8027 0.6351 0.7676 0.9298 1.0767 0.8812 0.7699 0.6584 1 5 0 0 0 0 0 0 0 0 0 
5 52 5 1 1 1 1 1 2.7656 0.4029 0.6405 2.6566 2.0688 1 1 1 0 1 1 1 1 1 1 1 0.6793 1.0116 0.9108 0.6735 0.9986 0.7426 1.3897 0.9057 0.6404 0.5692 9.000000e-01 5 0 0 0 0 0 0 0 0 0 
5 53 5 1 1 1 1 1 6.4457 1.3137 3.2261 7.3310 0.7396 1 1 1 1 1 1 1 1 1 1 1 0.9267 0.5718 0.7300 0.6682 0.9732 0.6518 1.3129 1.3494 1.5601 0.8023 1 5 0 0 0 0 0 0 0 0 0 
5 54 5 1 1 1 1 1 10.0871 6.8320 1.0236 8.5146 6.6112 1 1 1 1 1 1 1 1 1 1 1 0.8249 0.9109 0.6669 0.9143 0.8373 1.2033 0.9445 0.8059 0.6656 0.9599 1 5 0 0 0 0 0 0 0 0 0 
5 55 5 1 1 1 1 1 2.8761 0.4571 1.9028 0.4776 0.3329 1 0 1 0 1 1 1 1 0 0 1 0.9688 0.7036 0.7832 0.6356 0.9880 0.7386 1.2837 1.4249 0.7633 1.0629 6.000000e-01 5 0 0 0 0 0 0 0 0 0 
5 56 5 1 1 1 1 1 6.1568 0.2699 0.2628 3.3054 0.2827 1 1 1 1 1 1 1 1 1 1 1 0.6496 1.2515 0.6626 0.9499 0.7840 0.9531 0.6149 1.4568 1.2046 1.1927 1 5 0 0 0 0 0 0 0 0 0 
5 57 5 0 0 1 1 1 5.6782 5.4896 0.7158 6.2881 0.2410 6.000000e-01 0 1 1 1 1 1 1 0 1 1 1.1385 0.8960 1.2443 1.0552 0.8466 1.2043 1.1538 1.7000 0.6422 0.5821 8.000000e-01 3 2 0 0 0 0 0 0 0 0 
5 58 5 1 1 1 1 1 5.0864 0.9880 0.4464 3.3654 3.0551 1 1 0 1 1 1 1 1 1 1 1 0.8235 0.6184 0.6631 0.8278 0.7394 0.6843 0.8707 1.0112 0.6882 0.6600 9.000000e-01 5 0 0 0 0 0 0 0 0 0 
5 59 5 1 1 1 1 1 4.3305 0.3093 0.3873 0.5152 0.2949 1 1 1 1 1 1 1 1 1 1 1 0.8249 0.8359 0.6281 1.0411 0.6368 0.6862 0.7131 0.6354 0.7928 0.7020 1 5 0 0 0 0 0 0 0 0 0 
5 60 5 1 1 0 0 1 4.8852 7.0354 0.2453 0.2922 1.2287 6.000000e-01 1 1 1 1 1 0 1 1 1 1 0.6385 0.6143 1.1791 0.9140 0.7944 1.1066 0.6352 0.6379 0.8730 0.6793 9.000000e-01 3 2 0 0 0 0 0 0 0 0 
5 61 5 1 1 1 1 1 2.5789 3.2516 1.8316 1.0815 0.4974 1 1 1 1 1 1 1 1 1 1 1 0.7362 0.7520 0.5914 0.6612 0.7470 0.6160 0.8776 0.9916 1.0392 0.9488 1 5 0 0 0 0 0 0 0 0 0 
5 62 5 1 1 1 1 1 3.1300 0.3778 0.3893 1.2296 1.8175 1 1 1 1 1 1 1 1 1 1 1 0.8653 0.5306 1.0272 0.8134 1.0464 1.2161 0.7396 0.7690 0.8054 1.0372 1 5 0 0 0 0 0 0 0 0 0 
5 63 5 1 1 1 1 1 3.0140 6.7971 2.2621 9.6992 0.9525 1 1 1 1 0 1 1 1 1 1 1 0.6738 0.5200 0.5072 1.0623 0.6688 0.7485 0.6565 0.6896 0.7178 0.7556 9.000000e-01 5 0 0 0 0 0 0 0 0 0 
5 64 5 1 1 1 1 1 5.2263 0.3104 0.9532 4.9521 0.3348 1 1 1 1 1 1 1 1 1 1 1 0.7419 1.1970 0.7217 0.7087 0.8745 0.6066 1.4501 0.5694 0.8998 1.0094 1 5 0 0 0 0 0 0 0 0 0 
5 65 5 1 1 1 1 1 7.4919 0.8439 3.3825 2.7197 0.3026 1 1 1 1 1 1 1 1 1 1 0 0.6635 0.8931 0.6933 0.6487 0.8153 0.8189 0.5351 0.6166 0.5928 0.7590 9.000000e-01 5 0 0 0 0 0 0 0 0 0 
5 66 5 1 1 1 1 1 8.4659 0.6462 1.6477 0.2886 4.3494 1 1 1 1 1 1 1 1 1 1 1 0.7212 0.5384 0.6121 0.6116 1.1450 0.6638 0.8575 1.3579 0.6437 1.1258 1 5 0 0 0 0 0 0 0 0 0 
5 67 5 1 1 1 1 1 8.1243 0.3472 0.4379 2.6898 0.2554 1 1 1 1 1 1 1 1 1 1 1 1.0458 0.9198 0.7714 1.1524 0.6698 0.8311 0.6492 0.6672 0.9961 0.6938 1 5 0 0 0 0 0 0 0 0 0 
5 68 5 1 1 1 1 1 6.5833 0.5137 3.0501 0.2120 0.3235 1 1 1 1 1 1 1 1 1 1 1 0.8176 0.7529 0.7302 0.7358 0.7180 0.6963 0.9460 0.7192 1.0365 0.4966 1 5 0 0 0 0 0 0 0 0 0 
5 69 5 1 1 1 1 1 4.9306 2.1440 1.0341 0.3278 1.0321 1 1 0 1 1 1 1 1 1 1 1 0.5849 0.6663 0.5755 0.6837 0.6018 0.7184 0.7915 0.5896 1.1265 0.8038 9.000000e-01 5 0 0 0 0 0 0 0 0 0 
5 70 5 1 1 1 1 1 2.0541 1.7730 0.2847 0.3107 10.2178 1 1 1 1 1 1 1 1 1 1 1 0.8161 0.7870 1.0216 0.7403 0.7737 1.1303 0.7714 0.9051 0.7358 0.6030 1 5 0 0 0 0 0 0 0 0 0 
5 71 5 1 1 1 1 1 6.0399 3.6202 0.3256 2.8868 0.4549 1 1 1 1 1 1 1 1 1 1 1 0.6051 0.5879 0.9757 0.5026 0.5771 0.9081 0.7764 0.7015 0.7903 1.0796 1 5 0 0 0 0 0 0 0 0 0 
5 72 5 1 1 1 1 1 4.6400 5.3865 1.5523 0.2669 0.3678 1 1 1 1 1 1 1 1 1 1 1 0.8034 0.7038 0.6059 0.7344 0.7544 1.1555 0.7925 0.8791 0.7069 0.6532 1 5 0 0 0 0 0 0 0 0 0 
5 73 5 1 1 1 1 1 2.4134 4.1570 0.5411 4.1917 2.1141 1 1 1 1 0 1 1 0 1 1 1 1.0632 1.1444 0.6754 0.6323 0.6255 0.6120 0.6562 0.6678 0.7544 0.5385 8.000000e-01 5 0 0 0 0 0 0 0 0 0 
5 74 5 1 1 1 1 1 5.9254 1.0475 5.1972 0.2785 5.1658 1 1 1 1 1 1 0 1 1 1 1 0.5116 0.5875 0.7241 0.7025 1.0667 1.2298 0.7879 1.0505 1.0958 0.6829 9.000000e-01 5 0 0 0 0 0 0 0 0 0 
5 75 5 1 1 1 0 0 6.5080 3.9173 0.7091 10.0698 0.4615 6.000000e-01 1 1 1 1 1 1 1 1 1 1 0.6692 1.0092 0.6477 0.6520 0.7455 0.7803 0.5687 0.9076 0.7660 0.7277 1 3 2 0 0 0 0 0 0 0 0 
5 76 5 1 1 1 1 1 2.0004 0.2627 0.2838 0.5787 0.2803 1 1 1 1 1 1 1 1 1 1 1 1.0778 0.8464 0.7635 0.7006 1.1227 0.5700 0.7598 0.5978 0.5968 1.3125 1 5 0 0 0 0 0 0 0 0 0 
5 77 5 1 1 1 1 1 5.3263 1.0342 2.5430 2.7259 0.2578 1 1 0 1 1 1 1 1 1 1 1 0.7390 0.7152 0.9788 0.6741 0.8378 0.7250 1.2132 0.8770 1.2614 0.7166 9.000000e-01 5 0 0 0 0 0 0 0 0 0 
5 78 5 1 1 1 1 1 13.8899 1.4310 0.2923 0.2427 0.4136 1 0 1 1 1 1 1 1 1 1 1 1.0332 0.6897 0.9491 0.7854 0.7850 0.6834 0.6591 0.6751 0.9625 0.5304 9.000000e-01 5 0 0 0 0 0 0 0 0 0 
5 79 5 1 1 1 1 1 6.6942 3.0096 0.2898 0.3337 5.7453 1 1 1 1 1 1 1 1 1 1 0 0.9460 0.8403 0.7100 0.6570 0.8124 0.7987 0.6824 0.7546 0.7728 0.9235 9.000000e-01 5 0 0 0 0 0 0 0 0 0 
5 80 5 1 1 1 1 1 8.3628 8.2234 0.2744 0.2701 5.3711 1 1 1 1 1 1 1 1 1 1 0 0.9023 0.6126 0.7566 0.7739 0.5891 0.5841 1.3469 1.3198 0.6889 0.8099 9.000000e-01 5 0 0 0 0 0 0 0 0 0 
