Subject TrialNum SetSize Grid_Pos1_ACC Grid_Pos2_ACC Grid_Pos3_ACC Grid_Pos4_ACC Grid_Pos5_ACC Grid_Pos1_RT Grid_Pos2_RT Grid_Pos3_RT Grid_Pos4_RT Grid_Pos5_RT SumACC_Grid Pos1_ACC_SecTask Pos2_ACC_SecTask Pos3_ACC_SecTask Pos4_ACC_SecTask Pos5_ACC_SecTask Pos6_ACC_SecTask Pos7_ACC_SecTask Pos8_ACC_SecTask Pos9_ACC_SecTask Pos10_ACC_SecTask Pos1_RT_SecTask Pos2_RT_SecTask Pos3_RT_SecTask Pos4_RT_SecTask Pos5_RT_SecTask Pos6_RT_SecTask Pos7_RT_SecTask Pos8_RT_SecTask Pos9_RT_SecTask Pos10_RT_SecTask SumACC_SecTask IIP IOP DIP DIOP NPLs Misses
3 1 5 1 1 1 1 1 3.5172 4.2888 16.8680 4.5890 1.8179 1 1 1 1 1 1 0 1 1 1 0 0.9065 0.7825 0.6334 0.6254 0.7194 0.8920 0.8072 0.6993 0.8233 0.9921 8.000000e-01 5 0 0 0 0 0 0 0 0 0 
3 2 5 1 1 1 0 0 3.8322 1.0921 19.4819 12.7004 8.0505 6.000000e-01 1 1 1 1 0 1 1 0 1 1 0.6980 0.6966 0.8985 0.6540 1.0208 0.7339 1.2607 1.1413 0.8205 0.9122 8.000000e-01 3 1 0 1 0 0 0 0 0 0 
3 3 5 1 1 1 1 1 6.5215 0.8888 1.7501 0.3749 1.0550 1 1 1 1 1 1 1 1 1 1 1 0.8512 0.7522 1.0183 0.9142 0.7882 0.8400 0.7976 0.8000 0.8438 0.7203 1 5 0 0 0 0 0 0 0 0 0 
3 4 5 1 1 1 1 1 6.0859 0.6281 2.3832 1.2389 0.8424 1 1 1 1 1 1 1 1 1 1 1 0.8486 0.7047 1.0634 0.9565 0.7983 0.7630 1.0877 0.8451 0.6421 1.0526 1 5 0 0 0 0 0 0 0 0 0 
3 5 5 1 1 1 1 1 6.6206 1.2015 11.1957 1.2536 0.3203 1 1 1 0 1 1 1 0 1 1 1 0.9489 1.0984 0.8388 1.1032 0.8231 0.9301 1.1338 0.9129 0.7035 0.7834 8.000000e-01 5 0 0 0 0 0 0 0 0 0 
3 6 5 1 1 1 1 1 6.6905 3.1269 1.0871 2.9715 5.8904 1 1 1 1 1 1 1 1 1 1 1 0.7206 0.7203 0.7775 0.9619 1.1338 0.9651 0.8656 0.9347 0.7922 1.0539 1 5 0 0 0 0 0 0 0 0 0 
3 7 5 1 1 1 1 1 2.8139 1.6628 2.5768 11.8266 1.3026 1 1 1 1 1 1 1 1 1 1 1 1.0204 0.7729 1.0820 0.8710 0.8082 1.1329 0.9131 0.7657 0.7276 0.9946 1 5 0 0 0 0 0 0 0 0 0 
3 8 5 1 1 1 1 1 4.8066 5.1303 0.9905 1.1879 0.8038 1 1 1 1 1 1 1 1 1 1 1 1.1724 0.6894 0.9427 1.1422 0.9115 0.6654 1.0370 0.7595 0.6972 0.8470 1 5 0 0 0 0 0 0 0 0 0 
3 9 5 1 1 1 1 1 5.4591 2.0403 1.2364 0.7137 1.0843 1 1 1 1 1 1 1 1 1 1 1 0.8461 0.7883 0.9529 0.8657 0.8384 0.7853 1.0303 0.9138 0.9988 0.7907 1 5 0 0 0 0 0 0 0 0 0 
3 10 5 1 1 1 1 1 4.5719 1.4029 3.4045 2.4711 3.7478 1 1 1 1 1 1 1 1 1 1 1 1.0378 0.7138 0.8171 0.6645 0.7327 0.8496 1.0442 0.7391 0.6658 0.7119 1 5 0 0 0 0 0 0 0 0 0 
3 11 5 1 1 1 1 0 5.1050 5.6853 15.1192 3.7590 10.1567 8.000000e-01 1 1 1 1 1 0 1 1 0 1 0.6968 0.7441 0.7686 0.6648 0.7557 0.8790 0.8929 0.8943 1.3724 0.8192 8.000000e-01 4 0 0 1 0 0 0 0 0 0 
3 12 5 1 1 1 1 1 4.7581 1.7972 1.8472 2.5291 2.2285 1 1 1 0 1 1 1 1 1 1 1 0.6635 0.8957 1.1138 0.7767 0.7525 0.8642 0.8538 0.7510 0.8462 0.7855 9.000000e-01 5 0 0 0 0 0 0 0 0 0 
3 13 5 1 1 1 1 1 9.0178 1.6986 1.6406 1.0194 0.7146 1 1 1 1 1 1 1 1 1 1 1 0.7599 0.6836 0.8280 0.7879 0.6806 0.6384 0.5651 0.7379 0.7472 0.5828 1 5 0 0 0 0 0 0 0 0 0 
3 14 5 1 1 1 1 1 8.8130 5.0668 2.5217 0.8443 2.6809 1 1 1 1 1 1 1 0 1 1 0 0.7851 0.6632 1.0831 0.6679 0.7345 0.6975 1.0091 0.7369 0.9500 1.1370 8.000000e-01 5 0 0 0 0 0 0 0 0 0 
3 15 5 1 1 1 1 1 5.8806 2.3042 1.6354 3.7813 3.6509 1 1 1 1 0 1 1 0 0 0 1 0.6299 0.5309 0.6018 0.7201 0.7504 0.6542 0.8627 1.0019 1.2605 1.0449 6.000000e-01 5 0 0 0 0 0 0 0 0 0 
3 16 5 1 1 1 1 1 7.3133 4.3407 4.6439 3.5105 2.8070 1 1 1 1 1 1 1 1 1 1 1 0.8503 0.7662 1.0033 1.1436 0.7973 0.9160 0.8904 0.7463 1.0398 0.7530 1 5 0 0 0 0 0 0 0 0 0 
3 17 5 1 1 1 1 0 6.4391 5.1918 0.7273 13.1418 15.4301 8.000000e-01 1 1 1 1 1 1 0 0 1 1 0.7548 0.9565 0.6008 0.6795 0.4679 0.5938 0.7999 0.5736 0.7784 0.7357 8.000000e-01 4 0 0 1 0 0 0 0 0 0 
3 18 5 1 1 1 1 1 11.7208 2.4957 1.3235 0.5270 0.4808 1 1 0 1 1 1 1 1 1 1 1 0.6368 0.5907 0.5629 0.7080 0.6662 0.9567 0.8564 0.8214 0.6734 1.0537 9.000000e-01 5 0 0 0 0 0 0 0 0 0 
3 19 5 1 1 1 1 1 4.7799 0.9143 0.5071 3.8815 0.6687 1 0 1 1 1 1 1 1 1 1 1 0.8230 0.6878 0.8726 1.1355 1.0242 0.9128 0.6805 0.7975 0.9001 0.7616 9.000000e-01 5 0 0 0 0 0 0 0 0 0 
3 20 5 1 1 1 1 1 5.9705 4.4571 0.8513 0.6495 0.7758 1 1 1 1 1 1 1 1 1 1 1 0.8220 0.8218 1.1738 0.5481 0.6558 0.9784 0.6222 0.7674 0.7204 0.7739 1 5 0 0 0 0 0 0 0 0 0 
3 21 5 1 1 1 1 1 5.5453 0.5089 0.6261 2.4708 0.3716 1 1 1 1 1 1 1 1 1 1 1 0.7547 0.6163 0.5816 0.6632 0.6409 0.7475 0.7440 0.8230 0.9062 1.0503 1 5 0 0 0 0 0 0 0 0 0 
3 22 5 1 1 1 1 1 4.1471 1.1996 2.7393 5.8553 0.7719 1 1 1 1 1 1 1 1 1 1 1 0.5710 0.8998 0.6807 0.5944 0.8334 0.7345 0.7907 0.6734 1.1458 0.6628 1 5 0 0 0 0 0 0 0 0 0 
3 23 5 1 1 1 1 1 2.8107 1.0797 1.0817 0.8270 0.6135 1 1 1 1 1 0 1 1 1 1 1 0.6034 0.7643 0.6315 0.6492 0.8471 0.9710 0.7972 0.5994 0.7739 0.7612 9.000000e-01 5 0 0 0 0 0 0 0 0 0 
3 24 5 1 1 1 1 1 5.3894 1.7636 1.1084 0.6091 3.2296 1 1 1 1 1 1 0 1 1 1 1 0.5640 0.5894 0.6430 0.8360 0.5991 0.8701 0.8035 0.7429 0.9609 1.0480 9.000000e-01 5 0 0 0 0 0 0 0 0 0 
3 25 5 1 1 1 1 1 12.1946 9.4074 14.2654 0.6465 1.0919 1 1 1 1 1 1 1 1 1 1 1 0.7651 0.7178 0.6296 0.7432 0.7350 0.6618 0.7554 0.7878 0.6874 0.8880 1 5 0 0 0 0 0 0 0 0 0 
3 26 5 1 1 1 1 1 5.1190 1.3811 2.5513 4.2312 0.7356 1 1 1 1 1 1 1 1 1 1 1 0.7177 0.6224 0.5830 0.7522 0.5928 0.8045 1.0454 1.1053 0.6935 0.6317 1 5 0 0 0 0 0 0 0 0 0 
3 27 5 1 1 1 1 1 3.0102 1.2952 2.5478 3.8529 4.4376 1 1 1 1 1 1 1 1 1 1 1 0.7660 0.6708 0.5740 0.6187 0.6713 0.6268 0.8005 1.1503 0.9452 0.8763 1 5 0 0 0 0 0 0 0 0 0 
3 28 5 1 1 1 1 1 6.0181 3.2865 1.8303 2.7367 1.7080 1 1 1 1 1 1 1 1 1 1 0 0.6431 0.8058 0.7247 0.7041 0.7465 0.7108 0.8334 0.6810 1.0256 1.2647 9.000000e-01 5 0 0 0 0 0 0 0 0 0 
3 29 5 1 0 0 0 0 9.7882 0.9363 0.7908 0.6245 0.4399 2.000000e-01 1 1 1 1 1 1 1 1 1 1 0.6331 0.6412 0.6222 0.6464 0.9930 0.7603 0.9606 0.8046 0.7429 0.6790 1 1 3 1 0 0 0 0 0 0 0 
3 30 5 1 1 1 1 1 2.9010 1.5838 3.4860 6.2153 0.6031 1 1 1 1 1 1 0 1 1 1 1 0.7922 0.6787 0.7921 0.5511 0.7329 0.7844 0.6628 1.0308 0.7422 0.6623 9.000000e-01 5 0 0 0 0 0 0 0 0 0 
3 31 5 1 1 1 1 1 7.3903 5.5293 8.9218 2.0363 2.5374 1 1 1 1 0 1 1 0 0 1 1 0.7141 0.7107 0.6129 1.0350 0.7122 0.7879 0.6329 0.8469 0.9769 0.8999 7.000000e-01 5 0 0 0 0 0 0 0 0 0 
3 32 5 1 1 1 1 1 20.1115 2.2860 1.1035 2.5499 0.5424 1 1 1 1 1 0 1 1 1 1 1 0.8789 0.6993 0.6891 0.8953 0.7304 0.7459 1.1227 1.0356 0.7664 0.7013 9.000000e-01 5 0 0 0 0 0 0 0 0 0 
3 33 5 1 1 1 1 1 3.9279 0.8322 3.3065 0.4672 0.5516 1 1 1 1 1 1 0 1 1 1 1 0.6865 0.6720 0.7473 0.5677 0.6231 0.9374 0.8569 0.8069 0.8873 0.7874 9.000000e-01 5 0 0 0 0 0 0 0 0 0 
3 34 5 1 1 1 1 1 9.7037 3.1080 7.1052 6.6130 0.7727 1 1 1 1 1 1 1 1 0 1 1 1.0417 0.6613 0.6463 0.5994 0.7895 0.8658 0.7493 0.9900 1.0426 0.7307 9.000000e-01 5 0 0 0 0 0 0 0 0 0 
3 35 5 1 1 1 1 1 7.8654 3.3133 2.6996 0.7152 2.1612 1 1 1 1 1 1 1 1 1 1 1 0.5686 1.1091 0.7376 0.8353 0.7052 0.8628 0.7556 0.7890 0.8026 0.7123 1 5 0 0 0 0 0 0 0 0 0 
3 36 5 1 1 1 1 1 5.3111 4.1097 1.7050 2.3143 4.4445 1 1 1 1 1 1 1 1 0 1 1 0.6094 0.6024 0.6752 0.5101 0.6476 0.9520 0.9668 0.9439 0.6788 0.9158 9.000000e-01 5 0 0 0 0 0 0 0 0 0 
3 37 5 1 1 1 1 1 5.1350 0.6688 0.6113 0.5714 0.3125 1 1 1 1 1 1 1 1 1 1 1 0.7741 0.8422 1.0410 0.6111 0.5885 0.7826 0.8507 0.8270 0.7257 0.7305 1 5 0 0 0 0 0 0 0 0 0 
3 38 5 1 1 1 1 1 6.1625 7.7181 0.6714 2.1292 0.4772 1 1 1 1 1 1 1 1 1 1 0 0.5993 0.5986 0.7643 0.7912 0.8275 0.9400 0.8735 1.0626 0.7749 0.9841 9.000000e-01 5 0 0 0 0 0 0 0 0 0 
3 39 5 1 1 1 1 1 5.7053 0.6056 1.2013 1.7573 0.3261 1 0 1 1 1 1 1 1 1 1 1 0.9131 0.7876 1.0096 0.7268 0.9583 0.8093 1.1955 0.7336 0.9005 0.8101 9.000000e-01 5 0 0 0 0 0 0 0 0 0 
3 40 5 1 1 1 1 1 7.2002 0.5518 0.6676 0.9377 3.6767 1 1 1 1 1 1 1 1 1 1 0 0.7930 0.5760 0.6372 0.6547 0.9325 0.8215 0.6162 0.8203 0.7274 0.6469 9.000000e-01 5 0 0 0 0 0 0 0 0 0 
3 41 5 1 1 1 1 1 6.1822 3.3211 1.4693 4.5727 1.5407 1 1 1 1 1 1 1 1 1 1 0 1.0563 0.8149 0.9340 0.7424 0.8518 0.8178 0.9248 0.7669 0.9101 1.0725 9.000000e-01 5 0 0 0 0 0 0 0 0 0 
3 42 5 1 1 1 1 1 4.7941 1.1657 1.7631 1.2166 6.7473 1 1 1 1 1 1 1 1 1 1 1 0.7471 1.0289 0.8251 1.0748 0.6921 0.7640 0.6707 0.7054 0.8998 0.6529 1 5 0 0 0 0 0 0 0 0 0 
3 43 5 1 1 1 1 1 10.5330 6.2609 8.9350 0.6392 0.2881 1 1 1 1 1 1 1 1 1 0 1 0.6541 0.7279 0.6683 0.7568 0.7999 0.6819 1.3054 0.9265 0.9927 1.0953 9.000000e-01 5 0 0 0 0 0 0 0 0 0 
3 44 5 1 1 1 1 1 5.7146 1.7325 1.3732 0.6964 0.3139 1 1 1 1 1 1 1 1 1 1 1 0.8379 0.8912 0.8424 0.6680 0.8046 0.6920 0.7276 0.6681 0.9859 0.6991 1 5 0 0 0 0 0 0 0 0 0 
3 45 5 1 1 1 1 1 11.7935 0.7795 1.0761 3.2767 1.3755 1 1 1 1 1 1 1 1 0 1 1 0.9114 0.6503 0.8290 0.8495 0.7645 1.0260 0.9456 1.2589 0.9918 0.9577 9.000000e-01 5 0 0 0 0 0 0 0 0 0 
3 46 5 1 1 1 1 1 11.5195 1.4494 1.3640 2.3354 5.1826 1 1 1 1 1 1 1 1 1 1 1 0.6345 1.0116 0.8890 0.9448 0.6720 1.2140 0.9038 0.9887 0.6776 0.7539 1 5 0 0 0 0 0 0 0 0 0 
3 47 5 1 1 1 1 1 4.6829 0.6219 9.0857 2.7131 0.6054 1 1 1 1 1 1 1 1 1 1 1 0.7221 0.6905 0.7120 0.8252 1.0081 0.9169 0.8037 0.8099 1.1104 0.8227 1 5 0 0 0 0 0 0 0 0 0 
3 48 5 1 1 1 1 1 6.1703 3.8764 1.2963 1.8961 0.5356 1 1 1 1 1 1 1 1 1 1 1 0.7452 0.7303 1.0865 0.8388 1.0076 0.9302 1.1998 0.7815 0.7655 0.9780 1 5 0 0 0 0 0 0 0 0 0 
3 49 5 1 1 1 1 1 6.6579 0.9677 2.3004 0.3944 0.9092 1 1 1 1 1 1 0 1 1 1 1 0.7243 0.6571 0.6407 0.8330 0.8421 0.7923 0.9845 1.0102 0.5691 0.7281 9.000000e-01 5 0 0 0 0 0 0 0 0 0 
3 50 5 1 1 1 1 1 13.4652 2.2075 1.7264 0.6120 1.6499 1 1 1 1 1 1 1 1 1 1 1 0.6237 0.6088 0.5524 0.7133 0.8253 0.6677 1.0408 1.1621 0.6225 0.6479 1 5 0 0 0 0 0 0 0 0 0 
3 51 5 1 1 1 1 1 7.6406 0.8193 1.0988 4.0907 0.3793 1 1 1 0 1 1 1 1 1 1 1 0.7982 0.8476 0.9446 0.6385 0.7352 0.7574 0.7379 0.9510 0.7449 0.7460 9.000000e-01 5 0 0 0 0 0 0 0 0 0 
3 52 5 1 1 1 1 1 7.6822 7.4645 15.8562 5.6233 0.4447 1 1 1 1 1 1 1 1 1 1 1 0.6277 0.8303 0.6877 1.2769 1.4400 0.6812 0.6809 0.5901 1.0216 0.9075 1 5 0 0 0 0 0 0 0 0 0 
3 53 5 1 1 1 1 1 12.2239 1.1382 2.8280 0.4605 0.5487 1 1 1 1 1 0 1 1 1 1 1 0.8320 0.7217 0.7486 0.9816 0.8373 0.8605 0.7497 0.8339 0.6993 1.0549 9.000000e-01 5 0 0 0 0 0 0 0 0 0 
3 54 5 1 1 1 1 1 6.8549 3.8113 0.6229 0.5379 4.2506 1 1 1 0 1 1 1 1 1 1 1 0.9438 0.8275 0.7973 0.9237 0.6461 0.6057 0.6025 0.9925 0.8203 0.8718 9.000000e-01 5 0 0 0 0 0 0 0 0 0 
3 55 5 1 1 1 1 1 2.9070 2.0668 4.7814 0.6138 0.4424 1 1 1 0 1 1 1 0 1 1 1 0.6035 0.5957 1.0243 0.7864 1.0701 1.0579 1.3264 0.9340 1.0024 0.7712 8.000000e-01 5 0 0 0 0 0 0 0 0 0 
3 56 5 1 1 0 0 1 4.1781 1.8044 34.7284 1.9146 2.8445 6.000000e-01 1 1 1 1 1 1 0 1 1 1 0.8478 0.7665 0.7569 0.7898 0.9991 0.9985 1.2799 0.7965 0.8099 0.6147 9.000000e-01 3 2 0 0 0 0 0 0 0 0 
3 57 5 1 1 1 1 1 7.1380 0.8053 0.6595 1.8464 0.6047 1 1 1 1 1 1 1 1 1 1 1 0.7151 0.7200 0.6940 0.9204 0.9581 0.8149 1.1307 0.7758 0.7180 0.8307 1 5 0 0 0 0 0 0 0 0 0 
3 58 5 1 1 1 1 1 4.7128 13.9634 4.9771 5.4132 3.4489 1 1 1 0 1 1 1 1 1 1 1 0.7885 0.7442 0.9319 0.7634 0.6689 0.6850 1.0706 0.9131 0.9613 0.8221 9.000000e-01 5 0 0 0 0 0 0 0 0 0 
3 59 5 1 1 1 1 1 4.0853 0.5007 0.7409 0.4158 0.5547 1 1 0 1 1 1 1 1 1 1 1 0.5764 1.0265 0.8643 0.6353 0.8606 1.2229 0.7823 0.7937 1.4017 0.8267 9.000000e-01 5 0 0 0 0 0 0 0 0 0 
3 60 5 1 1 1 1 1 3.6964 4.9154 3.1012 0.7366 0.5938 1 1 1 1 1 1 1 1 1 1 1 0.6710 0.9903 0.8742 0.6316 0.7623 0.9113 1.0601 0.6781 0.8463 0.8511 1 5 0 0 0 0 0 0 0 0 0 
3 61 5 1 1 1 1 1 5.2691 2.0912 0.8823 0.7710 0.4779 1 1 1 1 1 1 1 1 1 1 1 0.5646 0.8931 0.8983 1.1285 0.8921 0.8915 1.1430 0.8602 0.8423 0.9571 1 5 0 0 0 0 0 0 0 0 0 
3 62 5 1 1 1 1 1 4.2848 0.6336 3.1748 0.6357 3.2558 1 1 1 1 1 1 1 1 1 1 1 1.2020 0.7354 0.7428 0.7952 0.8664 0.7568 0.8500 0.7219 0.5764 0.7134 1 5 0 0 0 0 0 0 0 0 0 
3 63 5 1 1 1 1 1 2.9021 1.3719 0.6612 0.5012 3.5142 1 1 1 1 1 1 1 1 1 1 1 0.8283 0.5908 1.0458 0.9743 0.6377 0.8095 0.6843 0.8142 0.6431 1.0649 1 5 0 0 0 0 0 0 0 0 0 
3 64 5 1 1 1 1 1 5.5721 11.9309 0.9624 2.4353 0.6930 1 1 1 1 1 1 1 1 1 1 1 0.7694 0.6580 0.6686 0.6689 0.6390 0.6393 0.7111 1.0388 1.0353 0.9146 1 5 0 0 0 0 0 0 0 0 0 
3 65 5 1 1 1 1 1 8.1581 1.5132 5.2669 0.6453 0.3703 1 1 1 1 1 1 1 1 1 0 1 0.6674 1.0801 0.8484 0.8657 0.7169 1.0234 0.6340 0.7543 0.9369 1.0033 9.000000e-01 5 0 0 0 0 0 0 0 0 0 
3 66 5 1 1 1 1 1 6.7135 4.8980 4.3146 0.4687 0.3655 1 1 1 1 1 1 1 1 1 1 1 0.7984 1.1606 0.9992 0.6559 0.8055 0.7082 0.8142 0.8239 1.0524 0.8311 1 5 0 0 0 0 0 0 0 0 0 
3 67 5 1 1 1 1 1 8.8856 1.1322 0.8411 4.0296 0.4023 1 1 0 1 1 1 1 1 1 1 1 0.7242 0.6611 0.6480 0.7711 0.8274 0.9252 0.6834 0.9420 0.7359 0.9495 9.000000e-01 5 0 0 0 0 0 0 0 0 0 
3 68 5 1 1 1 1 1 7.4312 2.4117 5.3112 3.7065 0.5357 1 1 1 1 1 1 1 1 1 1 1 0.8088 0.9026 0.7199 0.6210 1.1165 0.8103 0.9336 0.8567 0.8649 0.5332 1 5 0 0 0 0 0 0 0 0 0 
3 69 5 1 1 1 1 1 6.7613 0.5473 0.7998 0.4706 1.0329 1 1 1 1 1 1 1 1 1 1 1 0.6601 0.8081 0.6165 0.7073 0.7497 0.8545 0.8635 0.9192 0.8902 0.6265 1 5 0 0 0 0 0 0 0 0 0 
3 70 5 1 1 1 1 1 4.7548 1.2177 0.3446 0.6194 0.6636 1 1 1 1 1 1 1 1 1 1 1 0.5606 0.5684 1.0417 0.8473 0.6362 0.7431 0.8508 0.7989 0.6538 1.2267 1 5 0 0 0 0 0 0 0 0 0 
3 71 5 1 1 1 1 1 6.2970 3.3920 0.5813 1.2847 1.4816 1 1 1 1 1 1 1 1 1 0 1 0.8238 0.7114 0.7407 0.6362 0.7248 0.6768 0.5698 0.9215 0.8120 0.7320 9.000000e-01 5 0 0 0 0 0 0 0 0 0 
3 72 5 1 1 1 1 1 9.1094 1.2863 5.6255 0.6183 0.2835 1 1 1 1 1 0 1 1 1 1 1 0.6789 0.6596 0.9914 0.8320 0.7954 1.0217 0.8220 0.8134 0.8410 0.8966 9.000000e-01 5 0 0 0 0 0 0 0 0 0 
3 73 5 1 1 1 1 1 7.7819 0.5074 4.1092 7.8570 0.6801 1 1 1 1 1 1 1 1 1 1 1 0.6576 0.7833 1.0407 0.9162 1.0680 1.0824 1.1077 1.1069 0.6457 0.8535 1 5 0 0 0 0 0 0 0 0 0 
3 74 5 1 1 1 1 1 3.3182 2.7322 4.2691 7.8438 0.7552 1 1 1 1 1 1 0 1 1 1 1 0.8501 0.7564 1.0376 0.6210 0.5790 0.9338 0.7206 0.6245 0.9566 0.9782 9.000000e-01 5 0 0 0 0 0 0 0 0 0 
3 75 5 1 1 1 1 1 2.8645 0.5285 4.3519 4.0525 1.2848 1 1 1 1 1 0 1 1 1 1 1 0.6041 0.6050 0.5968 0.6372 1.2013 1.1005 0.7800 0.7186 0.6470 0.5974 9.000000e-01 5 0 0 0 0 0 0 0 0 0 
3 76 5 1 1 1 1 1 8.3583 1.0342 3.9468 0.5125 0.4321 1 1 1 1 1 1 1 1 1 1 1 0.5914 0.7940 0.9936 0.6929 0.9065 0.7249 1.0101 1.0555 0.9923 0.7063 1 5 0 0 0 0 0 0 0 0 0 
3 77 5 1 1 1 1 1 9.0891 3.3924 3.0540 1.5844 1.7169 1 1 1 1 1 1 1 1 1 1 1 0.7908 0.6629 0.6669 0.6774 0.8492 1.3359 0.7175 1.2726 0.7903 1.0943 1 5 0 0 0 0 0 0 0 0 0 
3 78 5 1 1 1 1 1 3.7317 0.9275 6.9195 1.1904 0.9989 1 1 1 1 1 1 1 1 1 1 1 0.6827 0.5690 0.8106 0.9032 0.6206 0.5215 0.6524 0.7762 1.0783 0.6033 1 5 0 0 0 0 0 0 0 0 0 
3 79 5 1 1 1 1 1 6.7033 0.5004 0.3240 0.4474 0.3619 1 1 1 1 1 1 1 1 1 1 1 0.6755 0.8011 0.6885 0.7707 0.8868 1.1799 1.3007 0.9404 0.8950 1.1271 1 5 0 0 0 0 0 0 0 0 0 
3 80 5 1 1 1 1 1 7.3098 1.3731 4.2791 4.5994 2.9285 1 1 1 1 1 0 1 1 1 1 0 0.6591 0.8054 0.6453 0.7699 1.2806 0.6229 0.8332 0.9937 0.9394 0.6906 8.000000e-01 5 0 0 0 0 0 0 0 0 0 
