Subject TrialNum SetSize Grid_Pos1_ACC Grid_Pos2_ACC Grid_Pos3_ACC Grid_Pos4_ACC Grid_Pos5_ACC Grid_Pos1_RT Grid_Pos2_RT Grid_Pos3_RT Grid_Pos4_RT Grid_Pos5_RT SumACC_Grid Pos1_ACC_SecTask Pos2_ACC_SecTask Pos3_ACC_SecTask Pos4_ACC_SecTask Pos5_ACC_SecTask Pos6_ACC_SecTask Pos7_ACC_SecTask Pos8_ACC_SecTask Pos9_ACC_SecTask Pos10_ACC_SecTask Pos1_RT_SecTask Pos2_RT_SecTask Pos3_RT_SecTask Pos4_RT_SecTask Pos5_RT_SecTask Pos6_RT_SecTask Pos7_RT_SecTask Pos8_RT_SecTask Pos9_RT_SecTask Pos10_RT_SecTask SumACC_SecTask IIP IOP DIP DIOP NPLs Misses
1 1 5 1 1 1 1 1 12.6610 0.6970 0.7658 2.1374 1.3568 1 1 1 0 0 1 0 1 1 1 1 0.9290 0.9375 0.8907 0.7710 0.6625 1.1152 0.6815 0.7315 0.8356 0.9686 7.000000e-01 5 0 0 0 0 0 0 0 0 0 
1 2 5 1 1 1 1 1 2.9638 5.0470 8.4136 2.9346 4.8531 1 1 1 1 1 1 1 1 1 1 1 0.6638 0.6227 0.9180 1.1331 1.0666 0.8754 0.6499 0.6765 0.9098 0.7689 1 5 0 0 0 0 0 0 0 0 0 
1 3 5 1 1 1 1 0 4.1338 1.0978 6.9341 3.3899 9.9554 8.000000e-01 1 1 1 1 1 1 1 1 1 1 0.7192 0.8152 1.2596 0.8769 0.6069 1.1380 0.8422 1.1951 0.8016 1.0198 1 4 1 0 0 0 0 0 0 0 0 
1 4 5 1 1 1 1 1 5.0777 1.5429 2.2415 0.5460 1.6320 1 1 0 1 1 1 1 1 1 1 1 0.6557 1.1351 0.6105 1.0333 0.6600 0.6150 0.7572 0.8637 0.6862 1.0026 9.000000e-01 5 0 0 0 0 0 0 0 0 0 
1 5 5 1 1 1 1 1 3.4962 2.1053 4.0563 0.4623 0.4175 1 1 1 1 1 1 1 1 1 1 1 0.8464 0.5300 0.6228 1.1889 0.6794 0.8250 0.8373 0.7780 0.7982 0.7060 1 5 0 0 0 0 0 0 0 0 0 
1 6 5 1 1 1 1 1 6.6398 3.1646 1.4732 0.6884 2.9322 1 1 1 1 1 1 1 0 1 1 1 0.5041 0.7174 0.9834 0.8297 0.7455 1.3389 0.6862 0.6027 0.4917 0.7344 9.000000e-01 5 0 0 0 0 0 0 0 0 0 
1 7 5 1 0 1 0 1 5.5729 8.6133 1.3688 19.9035 0.3860 6.000000e-01 1 1 1 1 0 1 0 1 1 1 1.0968 0.5153 0.9779 1.2679 1.0389 0.5815 1.2441 0.9716 0.8644 0.9116 8.000000e-01 3 2 0 0 0 0 0 0 0 0 
1 8 5 1 0 1 0 1 9.9212 0.9523 0.7394 26.5875 0.3268 6.000000e-01 1 1 1 1 1 1 1 1 1 0 0.6855 0.9612 0.9926 0.9011 0.7415 0.5192 0.8926 1.0226 1.1001 0.9045 9.000000e-01 3 2 0 0 0 0 0 0 0 0 
1 9 5 1 1 1 1 0 5.2145 1.4020 3.7531 1.3161 1.3522 8.000000e-01 1 1 1 1 1 0 1 1 0 1 0.5920 0.7008 0.7268 0.7867 0.6657 1.3278 0.5935 0.7356 0.9050 0.5942 8.000000e-01 4 0 0 1 0 0 0 0 0 0 
1 10 5 1 1 1 1 1 14.3498 0.6273 0.4249 1.7055 0.3739 1 1 1 1 1 1 1 0 0 1 1 0.7769 1.1292 0.7544 0.7439 0.5675 0.6318 0.7948 0.6602 0.6812 1.2673 8.000000e-01 5 0 0 0 0 0 0 0 0 0 
1 11 5 1 1 1 1 1 16.0956 3.0478 3.7903 0.2859 0.4404 1 0 0 1 1 1 1 0 1 1 1 1.0982 0.8531 0.9765 0.6529 0.7803 0.6042 0.9689 0.6140 0.4606 0.5302 7.000000e-01 5 0 0 0 0 0 0 0 0 0 
1 12 5 1 1 1 1 1 3.5832 1.2016 1.6148 24.7583 0.7720 1 1 1 0 1 1 1 0 1 1 1 1.1114 0.6823 0.4989 0.5910 0.5621 0.7954 1.2518 0.5464 0.7607 0.8770 8.000000e-01 5 0 0 0 0 0 0 0 0 0 
1 13 5 0 1 1 1 1 6.7091 2.4423 0.5906 0.3605 0.5399 8.000000e-01 0 1 0 1 1 1 1 1 0 1 1.6264 1.1440 0.9523 0.6390 0.8573 0.8244 0.7227 0.8805 0.3137 0.6718 7.000000e-01 4 1 0 0 0 0 0 0 0 0 
1 14 5 1 1 1 1 1 5.7139 0.6563 0.7499 3.8006 0.7032 1 1 1 0 1 1 0 1 1 1 0 0.7451 0.5062 0.5080 0.7385 0.5183 1.2176 0.6800 0.7643 1.0271 1.2642 7.000000e-01 5 0 0 0 0 0 0 0 0 0 
1 15 5 1 1 1 1 1 12.4217 1.4097 0.7815 5.3105 1.0318 1 1 0 1 1 1 1 1 1 1 1 0.6568 1.0408 0.7285 0.6627 1.1109 0.6545 0.7692 0.8453 0.8319 0.8420 9.000000e-01 5 0 0 0 0 0 0 0 0 0 
1 16 5 1 1 1 1 1 4.4229 3.9218 7.4336 0.2811 0.2430 1 1 1 1 1 1 1 1 1 1 1 0.6456 0.6693 0.5527 0.6123 0.4677 1.1953 0.6642 0.7650 0.6713 0.6978 1 5 0 0 0 0 0 0 0 0 0 
1 17 5 1 1 1 1 1 7.3976 0.8071 4.6208 4.5972 24.6474 1 1 1 1 1 1 0 1 1 1 1 0.8047 0.6286 0.4928 0.4798 0.9242 1.0454 1.0100 0.7202 0.5900 0.9770 9.000000e-01 5 0 0 0 0 0 0 0 0 0 
1 18 5 1 1 1 0 0 2.2482 1.2973 1.1973 16.5091 0.2381 6.000000e-01 1 1 1 0 1 1 1 1 1 1 0.5897 0.7349 0.6094 0.6035 1.1831 0.5069 0.7147 0.7587 0.9720 1.2002 9.000000e-01 3 2 0 0 0 0 0 0 0 0 
1 19 5 1 1 1 1 1 6.4482 0.5993 0.2775 0.3500 3.4564 1 1 1 1 0 1 1 1 1 0 1 0.6790 0.6831 0.7773 0.7182 0.5825 0.6845 1.1221 1.0985 1.2873 1.0601 8.000000e-01 5 0 0 0 0 0 0 0 0 0 
1 20 5 1 1 1 1 1 2.9115 5.0577 0.9174 6.8182 0.3175 1 1 1 1 1 1 1 0 1 0 1 0.9209 0.5591 0.6315 0.9522 0.7777 0.6969 1.1375 0.9402 0.4999 0.6249 8.000000e-01 5 0 0 0 0 0 0 0 0 0 
1 21 5 1 1 1 0 1 11.4893 5.0512 3.0829 14.5264 5.1239 8.000000e-01 0 1 0 1 0 1 1 1 1 1 0.5755 0.6538 0.9749 0.7378 0.4563 0.7944 0.8588 1.0274 0.8660 1.0956 7.000000e-01 4 0 0 1 0 0 0 0 0 0 
1 22 5 1 1 1 0 0 4.9946 2.4711 0.9061 8.9559 11.6876 6.000000e-01 0 1 1 1 1 1 1 1 1 1 0.8648 1.1791 0.5297 1.2203 1.6661 0.9806 0.8531 0.8010 0.8073 0.9221 9.000000e-01 3 2 0 0 0 0 0 0 0 0 
1 23 5 1 1 1 1 0 3.7967 0.2985 3.3754 1.9364 17.2584 8.000000e-01 1 1 1 1 1 1 1 1 0 0 0.9321 0.8082 0.5857 0.5910 1.1894 1.1505 0.7245 0.6485 1.5130 1.1386 8.000000e-01 4 0 1 0 0 0 0 0 0 0 
1 24 5 1 1 1 1 1 3.4680 3.2992 0.5669 2.7296 5.3889 1 1 1 1 1 1 1 1 0 1 1 0.8883 0.5477 0.5990 0.6909 0.8667 0.5416 0.5815 0.7149 0.5884 0.8574 9.000000e-01 5 0 0 0 0 0 0 0 0 0 
1 25 5 1 0 0 0 1 3.7602 1.0592 2.9779 5.4530 0.6245 4.000000e-01 1 1 1 0 1 1 1 1 1 1 0.7437 0.7754 1.1133 0.7142 0.6534 0.8827 1.1222 0.6072 0.9497 0.7434 9.000000e-01 2 3 0 0 0 0 0 0 0 0 
1 26 5 1 0 0 1 1 3.0631 15.9724 11.1751 5.3324 0.4080 6.000000e-01 1 1 0 1 0 1 1 1 1 1 0.9025 0.4161 0.8545 0.8387 1.7000 1.0871 0.6512 0.8840 0.8294 0.6493 8.000000e-01 3 1 0 1 0 0 0 0 0 0 
1 27 5 1 1 1 1 0 4.7929 0.4332 2.0106 4.9232 22.3604 8.000000e-01 0 1 0 1 1 1 1 1 1 1 1.1195 1.1043 0.4799 0.8002 0.5811 0.8274 0.5106 0.9349 0.5491 0.6435 8.000000e-01 4 0 0 1 0 0 0 0 0 0 
1 28 5 1 1 1 1 1 4.0232 0.4776 1.4790 15.2728 0.2449 1 1 1 0 1 1 1 1 1 1 1 0.7882 1.1649 0.7675 0.5937 0.6105 0.6636 1.3331 0.5942 0.6892 0.8688 9.000000e-01 5 0 0 0 0 0 0 0 0 0 
1 29 5 1 1 1 1 1 6.3863 0.8034 2.0134 0.2477 2.0831 1 1 1 1 1 0 0 1 1 1 1 0.7500 0.5733 0.5294 1.1655 0.6977 1.3983 0.7339 0.8269 0.6027 0.9902 8.000000e-01 5 0 0 0 0 0 0 0 0 0 
1 30 5 1 1 0 0 0 5.1689 0.3087 5.1125 0.6938 2.5332 4.000000e-01 1 1 1 1 0 1 1 0 0 1 0.9687 0.8013 0.6196 0.6261 0.7532 0.7138 0.7503 1.4061 1.7000 1.0649 7.000000e-01 2 2 1 0 0 0 0 0 0 0 
1 31 5 1 1 1 1 1 5.7343 1.0204 0.3771 2.3046 9.7500 1 1 1 1 1 0 1 1 0 1 1 0.7530 0.8382 0.5922 0.7937 0.9721 0.9626 0.9852 1.3158 1.0646 0.7389 8.000000e-01 5 0 0 0 0 0 0 0 0 0 
1 32 5 1 1 1 1 1 3.4936 1.9710 1.5692 11.9783 0.2662 1 1 1 1 1 0 1 1 0 0 1 1.0924 0.7049 0.5589 0.5732 0.6276 0.7783 0.6600 1.1026 1.7000 0.7193 7.000000e-01 5 0 0 0 0 0 0 0 0 0 
1 33 5 1 1 1 1 1 6.5740 1.1941 2.1436 1.0460 0.8519 1 1 1 1 1 1 1 1 1 1 1 0.9677 0.8662 0.6547 0.6143 0.5755 0.5176 0.5372 0.5864 1.0132 0.6952 1 5 0 0 0 0 0 0 0 0 0 
1 34 5 1 1 1 1 0 5.9197 6.5373 0.7902 3.7889 15.4481 8.000000e-01 1 1 1 1 1 1 1 1 1 1 1.0136 0.8195 0.6874 0.7353 0.6020 0.7147 1.0522 0.5948 1.4473 0.7723 1 4 0 1 0 0 0 0 0 0 0 
1 35 5 1 0 0 1 1 4.6892 0.8407 0.6688 1.3843 0.4066 6.000000e-01 0 1 1 1 0 1 0 1 1 1 1.0441 0.8220 0.6661 0.9010 1.0846 0.6432 0.9410 0.7724 0.5215 0.5575 7.000000e-01 3 2 0 0 0 0 0 0 0 0 
1 36 5 1 1 1 1 1 6.3628 1.5992 1.8713 0.3033 0.2426 1 1 1 0 1 1 1 1 1 0 1 0.6407 0.7995 0.7510 1.4056 0.7059 0.7743 0.6477 0.8155 0.6493 1.0274 8.000000e-01 5 0 0 0 0 0 0 0 0 0 
1 37 5 1 1 1 1 1 5.5527 0.7398 0.2643 0.0108 0.2742 1 1 1 1 1 0 1 1 1 1 1 0.8377 0.6721 0.7064 0.6789 0.5639 0.5892 0.5734 0.6790 0.8644 0.9528 9.000000e-01 5 0 0 0 0 0 0 0 0 0 
1 38 5 1 1 1 1 1 8.5464 3.3508 2.9147 3.7296 10.8761 1 1 1 1 1 1 1 0 1 0 0 0.7168 0.9118 0.8826 0.6292 0.8284 0.5552 1.2926 0.8416 0.5898 0.7825 7.000000e-01 5 0 0 0 0 0 0 0 0 0 
1 39 5 1 1 1 1 1 7.8971 0.4162 2.7030 0.8362 0.3459 1 1 1 1 1 1 1 1 1 0 1 0.7629 0.6715 0.7107 0.5469 0.5613 0.5949 0.6927 0.5519 0.8216 0.8774 9.000000e-01 5 0 0 0 0 0 0 0 0 0 
1 40 5 1 1 1 1 1 9.0709 0.6449 11.4734 0.3220 0.2689 1 1 1 1 1 1 1 1 1 1 1 0.7376 0.8438 0.6684 0.8125 0.6622 0.7428 0.9117 1.1620 0.7784 0.9966 1 5 0 0 0 0 0 0 0 0 0 
1 41 5 1 1 1 1 1 4.1788 2.1536 12.5919 1.0452 0.7577 1 1 1 1 1 0 1 1 0 0 1 0.5528 0.7134 0.5976 0.6235 0.6089 0.6860 0.6318 1.1679 0.9352 0.6986 7.000000e-01 5 0 0 0 0 0 0 0 0 0 
1 42 5 1 1 1 1 1 7.2025 1.2097 1.0627 1.3337 0.4001 1 1 1 1 1 1 1 1 1 1 1 1.0348 0.8170 0.6421 0.7607 0.8905 0.8778 1.1876 0.9948 1.1084 0.7027 1 5 0 0 0 0 0 0 0 0 0 
1 43 5 1 1 1 1 1 3.0020 1.1752 1.9015 4.8534 0.3479 1 1 1 1 1 1 1 1 1 1 0 0.9208 0.6726 0.7060 0.8724 0.7134 0.6599 0.9697 0.6696 0.9555 1.7000 9.000000e-01 5 0 0 0 0 0 0 0 0 0 
1 44 5 1 1 1 1 1 2.4944 0.7269 5.1139 0.4555 6.0990 1 1 1 1 1 1 1 1 1 1 1 1.0506 0.6627 0.7795 0.7973 0.6061 0.6488 0.6891 1.0892 0.6514 1.2088 1 5 0 0 0 0 0 0 0 0 0 
1 45 5 1 1 1 1 1 3.9191 2.3293 1.5413 5.5150 5.8467 1 1 1 1 1 1 1 1 1 1 1 0.7025 0.5553 0.7382 0.5515 0.3213 0.5081 0.6830 1.1970 0.5876 0.6318 1 5 0 0 0 0 0 0 0 0 0 
1 46 5 1 0 0 1 1 7.2950 0.2804 7.7261 17.3067 0.3393 6.000000e-01 1 1 1 1 0 1 1 1 1 1 1.2183 0.7444 0.6298 0.9956 0.5287 0.7230 0.9129 0.6017 0.7371 0.7878 9.000000e-01 3 2 0 0 0 0 0 0 0 0 
1 47 5 1 1 1 1 1 6.0492 0.8095 0.4733 0.8559 0.3173 1 0 1 1 1 1 1 1 1 1 0 1.4313 0.6780 0.7767 0.6218 0.7602 0.7167 0.8050 0.5767 0.6344 0.7806 8.000000e-01 5 0 0 0 0 0 0 0 0 0 
1 48 5 1 1 1 1 1 5.7478 5.2601 0.7087 4.3100 1.2604 1 1 1 0 1 1 1 1 1 1 1 0.9249 0.6472 0.8941 0.9450 0.6732 0.5672 1.1831 0.9167 0.7172 0.7715 9.000000e-01 5 0 0 0 0 0 0 0 0 0 
1 49 5 1 1 1 1 1 7.5249 0.2704 0.2665 0.3581 0.2574 1 0 1 1 1 1 1 1 1 1 1 1.0534 0.6495 0.5309 0.6128 0.5657 0.7956 0.7597 0.6601 0.6398 0.6894 9.000000e-01 5 0 0 0 0 0 0 0 0 0 
1 50 5 1 1 1 1 1 5.4475 0.4117 1.6363 2.0724 2.3498 1 1 1 1 0 1 1 1 1 1 0 0.9241 0.6011 0.5686 1.3107 1.1742 0.6946 0.7550 0.7542 0.5206 0.9398 8.000000e-01 5 0 0 0 0 0 0 0 0 0 
1 51 5 1 1 1 1 1 6.5788 0.3094 2.9429 2.0417 2.3401 1 1 1 1 1 0 1 1 1 1 0 1.1118 0.7090 1.2292 0.5608 0.6618 1.1159 1.3339 0.9476 0.8253 0.6957 8.000000e-01 5 0 0 0 0 0 0 0 0 0 
1 52 5 1 1 1 1 1 2.7860 4.7300 8.2719 0.4324 9.5998 1 1 1 0 0 1 0 1 0 1 1 0.8013 0.6384 1.3858 0.8606 0.6321 1.1531 0.5224 0.8500 0.6552 0.8083 6.000000e-01 5 0 0 0 0 0 0 0 0 0 
1 53 5 1 1 1 1 1 8.7949 1.5306 0.3650 1.6472 0.6655 1 1 1 1 1 1 1 1 1 0 1 0.9767 0.6865 0.6703 0.8295 0.6378 0.5379 0.5873 0.4987 1.1067 1.1479 9.000000e-01 5 0 0 0 0 0 0 0 0 0 
1 54 5 1 1 1 1 1 5.4867 7.5456 0.4086 1.4573 4.8226 1 0 1 1 1 1 1 1 1 1 0 1.2896 0.8915 0.7637 0.7737 0.9943 0.6365 0.9006 0.5527 0.8362 0.5873 8.000000e-01 5 0 0 0 0 0 0 0 0 0 
1 55 5 1 1 1 1 1 6.6126 0.4217 5.1563 5.0836 1.6682 1 0 1 1 1 1 1 1 1 1 1 1.2508 0.6151 0.7513 0.7185 0.8831 1.1143 0.5540 0.8434 0.8101 0.6862 9.000000e-01 5 0 0 0 0 0 0 0 0 0 
1 56 5 1 1 0 0 0 2.4832 3.3656 6.5190 0.8687 9.7331 4.000000e-01 1 1 1 1 0 0 1 1 1 0 1.0254 0.9947 0.6772 1.6918 0.9248 1.7000 0.7920 0.9718 0.8217 0.6937 7.000000e-01 2 2 1 0 0 0 0 0 0 0 
1 57 5 1 1 1 1 1 6.0638 0.3731 2.2925 0.6016 0.4906 1 1 1 1 1 1 0 1 1 0 0 0.8633 0.8172 1.1454 0.8749 0.6826 0.6976 0.6678 1.2721 1.3114 1.0061 7.000000e-01 5 0 0 0 0 0 0 0 0 0 
1 58 5 1 1 1 1 1 5.1494 0.5199 3.1317 0.3271 1.4223 1 1 1 1 0 1 1 0 1 1 1 0.9791 0.5668 0.6942 0.5558 0.5613 0.9076 0.7280 0.9926 0.6644 0.6188 8.000000e-01 5 0 0 0 0 0 0 0 0 0 
1 59 5 1 1 0 0 0 1.3919 8.9210 12.4650 5.1874 0.4368 4.000000e-01 1 1 1 1 0 1 1 0 1 1 0.7816 0.8417 0.6648 0.7103 1.1315 0.7167 0.8176 0.8390 0.8039 0.9229 8.000000e-01 2 2 0 0 1 0 0 0 0 0 
1 60 5 1 1 1 1 1 5.6309 5.1418 5.0397 2.5080 0.5194 1 1 1 1 1 1 1 1 0 1 0 0.7185 0.7119 0.7573 0.6581 0.5154 0.5224 0.7196 0.8255 0.7758 0.7501 8.000000e-01 5 0 0 0 0 0 0 0 0 0 
1 61 5 1 1 1 1 1 5.6724 0.3289 0.5907 1.1418 0.0922 1 1 1 1 1 1 1 1 1 0 1 0.6803 0.5810 0.7323 0.7233 0.5771 0.7347 0.6057 0.7348 0.4328 0.9353 9.000000e-01 5 0 0 0 0 0 0 0 0 0 
1 62 5 1 1 1 0 1 6.2763 2.4479 1.5561 15.7171 3.0842 8.000000e-01 1 1 1 1 1 1 1 1 1 1 1.1364 0.9367 0.9492 0.8120 0.6186 0.6255 1.0746 0.8220 0.9274 0.7336 1 4 0 0 1 0 0 0 0 0 0 
1 63 5 1 1 1 1 1 2.3221 0.7492 0.6649 0.8840 0.2829 1 1 1 1 1 1 1 1 1 1 1 0.9297 0.7885 1.1368 0.6731 0.8679 0.7088 0.7355 0.7245 1.0844 0.7656 1 5 0 0 0 0 0 0 0 0 0 
1 64 5 1 1 1 1 1 2.1727 0.6846 0.7647 0.7974 2.1520 1 1 1 1 1 1 1 1 1 1 1 0.6826 0.8696 0.6114 1.0304 0.8334 1.1993 1.3197 0.8165 0.7346 0.8272 1 5 0 0 0 0 0 0 0 0 0 
1 65 5 1 1 1 1 1 7.3881 0.3123 0.3345 8.0572 1.5997 1 1 1 1 1 1 1 1 1 1 1 1.1868 0.6299 0.8037 0.7700 0.8364 0.6225 0.6276 1.2172 0.7867 1.1154 1 5 0 0 0 0 0 0 0 0 0 
1 66 5 1 1 1 1 0 5.6672 0.4350 0.1320 0.2876 0.2087 8.000000e-01 1 1 1 0 1 1 1 1 1 1 0.8121 0.5650 0.7091 0.5606 0.6966 0.6183 0.5856 1.0732 0.4667 0.6473 9.000000e-01 4 0 1 0 0 0 0 0 0 0 
1 67 5 1 0 0 1 0 2.2685 1.6738 20.7945 0.1579 15.8452 4.000000e-01 1 0 0 1 1 1 1 1 1 1 0.7661 1.0494 0.7179 0.9119 0.5998 0.7215 0.5872 0.8702 0.6918 0.6317 8.000000e-01 2 1 0 1 1 0 0 0 0 0 
1 68 5 1 0 0 1 1 7.3194 0.2651 0.2692 5.9850 0.1334 6.000000e-01 1 1 1 1 1 0 1 1 1 0 1.0855 0.8663 0.5372 0.7737 1.0671 0.8264 0.7499 0.6676 0.5877 0.6770 8.000000e-01 3 2 0 0 0 0 0 0 0 0 
1 69 5 1 1 1 1 1 4.2604 6.8379 0.6906 1.7331 0.5120 1 1 1 0 1 0 1 1 1 1 1 0.7766 0.7154 0.6938 0.7664 0.6023 0.7919 0.7700 0.9040 0.6338 0.7214 8.000000e-01 5 0 0 0 0 0 0 0 0 0 
1 70 5 1 1 1 1 1 3.9316 5.8719 0.2576 0.4636 1.8532 1 1 1 1 1 1 0 1 1 1 1 1.0249 0.9209 1.0743 0.8778 1.4238 0.8096 0.7078 0.8430 0.8491 1.2487 9.000000e-01 5 0 0 0 0 0 0 0 0 0 
1 71 5 1 1 1 1 0 10.1218 0.5584 0.3551 0.6861 6.5891 8.000000e-01 1 1 1 1 1 0 1 1 1 1 0.6609 0.5579 0.6966 0.6916 0.7117 0.6473 0.6560 0.9354 0.9029 0.7214 9.000000e-01 4 0 0 1 0 0 0 0 0 0 
1 72 5 0 0 0 0 1 3.0619 2.2003 1.7439 12.7865 0.2637 2.000000e-01 1 1 0 1 1 1 1 0 1 1 0.6867 1.1598 0.6874 0.8813 1.0544 0.9673 0.5208 0.8986 0.6566 1.0602 8.000000e-01 1 4 0 0 0 0 0 0 0 0 
1 73 5 1 1 1 0 1 5.4840 0.7785 1.4091 3.0726 0.2469 8.000000e-01 1 1 1 0 1 1 1 0 1 1 0.7042 0.8531 0.6370 0.9112 0.5262 0.6224 0.4334 1.0920 1.0116 1.2350 8.000000e-01 4 1 0 0 0 0 0 0 0 0 
1 74 5 1 1 1 1 1 5.0406 0.2207 0.3411 0.6685 0.4874 1 1 0 1 1 1 1 1 0 1 1 0.7459 0.8087 0.5221 0.6534 0.6811 0.5899 0.7923 0.9986 0.6300 0.8252 8.000000e-01 5 0 0 0 0 0 0 0 0 0 
1 75 5 1 1 0 1 1 1.4014 0.4767 1.6935 1.6666 0.2009 8.000000e-01 1 1 0 1 1 1 1 1 1 1 0.7145 0.6879 0.5591 1.0846 0.6327 0.8399 1.3585 0.6465 0.8271 0.6266 9.000000e-01 4 0 0 0 1 0 0 0 0 0 
1 76 5 1 1 0 1 0 3.6921 0.6193 2.0372 11.5246 0.3650 6.000000e-01 1 1 1 1 1 1 1 1 1 0 0.9064 0.7565 0.4994 0.8652 0.8769 1.1307 0.4941 0.8566 1.0362 1.0649 9.000000e-01 3 2 0 0 0 0 0 0 0 0 
1 77 5 1 1 1 0 1 2.7136 2.8138 1.4011 21.7659 0.2390 8.000000e-01 1 1 1 1 0 1 1 1 1 1 0.6307 0.4281 0.6882 1.5664 0.5004 0.6302 0.5334 0.3865 0.5489 0.9084 9.000000e-01 4 0 0 1 0 0 0 0 0 0 
1 78 5 1 1 1 1 1 8.5827 0.8291 7.9747 0.3319 0.5768 1 1 1 1 1 1 1 1 1 1 1 0.9175 0.5164 0.4776 0.9083 0.8368 0.8299 1.0539 0.9637 0.7415 0.5473 1 5 0 0 0 0 0 0 0 0 0 
1 79 5 1 1 1 1 1 4.9773 0.8294 0.3186 0.2806 0.4713 1 1 1 1 1 1 1 0 0 1 1 0.6097 0.8385 0.9517 0.6574 0.7926 0.7382 0.9179 1.0032 0.9721 0.7901 8.000000e-01 5 0 0 0 0 0 0 0 0 0 
1 80 5 1 1 1 1 1 2.5032 0.3887 0.2883 0.2995 6.4584 1 1 1 0 1 1 0 1 1 1 1 0.9672 0.6910 0.6485 0.5798 0.8749 0.8728 0.6824 0.5919 0.7339 0.8549 8.000000e-01 5 0 0 0 0 0 0 0 0 0 
