Subject TrialNum SetSize Grid_Pos1_ACC Grid_Pos2_ACC Grid_Pos3_ACC Grid_Pos4_ACC Grid_Pos5_ACC Grid_Pos1_RT Grid_Pos2_RT Grid_Pos3_RT Grid_Pos4_RT Grid_Pos5_RT SumACC_Grid Pos1_ACC_SecTask Pos2_ACC_SecTask Pos3_ACC_SecTask Pos4_ACC_SecTask Pos5_ACC_SecTask Pos6_ACC_SecTask Pos7_ACC_SecTask Pos8_ACC_SecTask Pos9_ACC_SecTask Pos10_ACC_SecTask Pos1_RT_SecTask Pos2_RT_SecTask Pos3_RT_SecTask Pos4_RT_SecTask Pos5_RT_SecTask Pos6_RT_SecTask Pos7_RT_SecTask Pos8_RT_SecTask Pos9_RT_SecTask Pos10_RT_SecTask SumACC_SecTask IIP IOP DIP DIOP NPLs Misses
6 1 5 1 1 1 1 1 9.3302 3.0250 0.4526 0.2737 10.0428 1 1 1 1 1 1 1 1 1 1 1 1.1134 0.9287 0.6221 0.4607 0.5566 0.7092 0.9429 0.6749 0.5534 0.6072 1 5 0 0 0 0 0 0 0 0 0 
6 2 5 1 1 1 1 1 7.1652 4.3538 5.3518 2.8568 3.3891 1 1 1 1 1 1 1 1 1 1 1 0.7455 0.7159 0.5653 0.6401 0.5192 0.6561 0.5420 0.5939 0.8005 0.8163 1 5 0 0 0 0 0 0 0 0 0 
6 3 5 1 1 0 0 1 6.2190 0.5413 1.7586 6.6099 2.5286 6.000000e-01 1 1 1 1 1 0 0 1 1 1 0.6052 0.4688 0.5486 0.4834 0.4078 0.4739 0.8915 0.9668 0.7620 0.6901 8.000000e-01 3 2 0 0 0 0 0 0 0 0 
6 4 5 1 1 1 1 1 5.3428 14.7277 0.5473 0.5018 3.5903 1 1 1 1 1 1 1 1 0 1 1 0.7584 0.8182 0.6624 0.6071 0.5133 0.7266 0.8340 0.8914 0.9557 0.9725 9.000000e-01 5 0 0 0 0 0 0 0 0 0 
6 5 5 1 1 1 1 1 5.1672 9.5087 7.9853 3.0264 2.4717 1 1 1 1 0 1 1 1 1 1 1 0.7327 0.5848 0.5175 0.6347 0.8836 0.7613 0.6406 0.4894 1.1087 0.7947 9.000000e-01 5 0 0 0 0 0 0 0 0 0 
6 6 5 1 1 1 0 0 9.3502 13.6061 1.4359 27.7391 0.2854 6.000000e-01 0 1 1 1 1 1 0 1 0 1 0.6927 0.6126 0.6047 0.5424 0.7794 0.5750 0.5679 0.5201 0.6305 1.0086 7.000000e-01 3 2 0 0 0 0 0 0 0 0 
6 7 5 1 1 1 1 1 3.3720 0.9062 1.0783 3.5832 3.4368 1 1 1 1 1 0 1 1 1 1 1 1.1355 0.8435 0.6929 0.8638 0.5534 0.5394 0.5954 0.5313 0.7234 0.6950 9.000000e-01 5 0 0 0 0 0 0 0 0 0 
6 8 5 1 1 1 1 1 12.8139 5.6614 0.5623 5.1413 8.2163 1 1 1 1 1 1 1 1 1 1 0 0.7176 0.7493 0.6786 0.5745 0.6070 0.7892 0.8096 0.6399 0.7962 1.3104 9.000000e-01 5 0 0 0 0 0 0 0 0 0 
6 9 5 1 1 1 1 1 19.5908 6.7678 5.4401 1.8484 1.5947 1 0 1 1 1 1 1 1 0 1 0 0.9492 0.9715 0.8658 0.7673 1.0193 1.0478 1.0653 1.1880 0.6927 0.8335 7.000000e-01 5 0 0 0 0 0 0 0 0 0 
6 10 5 1 1 1 1 1 5.4705 2.7238 5.5233 0.4652 5.2345 1 1 1 1 1 0 1 1 0 1 1 0.6885 0.5821 0.8383 0.6503 0.7338 0.7082 0.7677 1.0063 0.8186 0.7166 8.000000e-01 5 0 0 0 0 0 0 0 0 0 
6 11 5 1 1 1 1 1 7.2122 0.3785 0.3534 0.4626 0.2443 1 1 1 1 1 1 1 1 1 1 1 0.7323 0.5645 0.6882 0.8166 0.7252 0.7895 0.7412 0.7810 1.1637 0.8310 1 5 0 0 0 0 0 0 0 0 0 
6 12 5 1 1 1 1 1 25.7558 6.2792 0.7987 0.8488 1.1368 1 1 0 1 1 1 1 1 1 1 1 0.6393 0.8655 0.7183 1.1008 0.7462 1.0851 0.8600 0.5711 0.6054 0.6303 9.000000e-01 5 0 0 0 0 0 0 0 0 0 
6 13 5 1 1 1 1 1 8.4805 6.3234 0.7638 0.8011 0.4606 1 1 1 1 1 1 1 1 1 1 1 0.9326 0.6672 0.7857 0.7133 0.7911 0.5908 0.8629 0.6991 0.8651 0.6599 1 5 0 0 0 0 0 0 0 0 0 
6 14 5 1 1 1 1 1 12.9170 0.5008 1.4251 2.6674 3.7326 1 1 1 1 1 1 1 1 1 1 1 0.6987 0.7530 0.7985 0.5142 0.6892 0.2666 0.6062 0.6307 0.8289 0.6872 1 5 0 0 0 0 0 0 0 0 0 
6 15 5 1 1 1 1 1 5.7710 10.7268 0.5147 3.1266 1.6122 1 1 1 1 1 1 1 1 1 1 1 0.7244 0.6415 0.5767 0.6115 0.5446 0.6709 0.5791 0.8649 0.8438 0.9353 1 5 0 0 0 0 0 0 0 0 0 
6 16 5 1 1 1 1 1 3.5721 1.9731 6.6000 2.9605 5.0706 1 1 1 1 1 1 1 1 1 1 1 0.6328 0.7672 0.9812 0.6675 0.7924 0.8979 0.7166 0.7243 0.6651 0.6224 1 5 0 0 0 0 0 0 0 0 0 
6 17 5 1 1 1 1 1 5.0475 1.4639 0.3720 0.2534 0.2919 1 1 1 1 1 1 1 1 1 1 1 0.7018 0.8669 0.8894 0.5837 0.5520 1.0408 0.7161 0.7187 0.9594 0.6914 1 5 0 0 0 0 0 0 0 0 0 
6 18 5 1 1 1 1 1 2.3785 9.4067 1.7204 6.3694 0.3203 1 1 1 1 1 1 1 1 1 1 1 0.8339 0.7714 0.5653 0.8335 0.6169 0.6864 1.2681 1.0044 0.8250 0.8777 1 5 0 0 0 0 0 0 0 0 0 
6 19 5 1 1 1 1 1 9.4252 0.4386 1.5397 2.3488 1.2153 1 1 1 1 1 1 1 1 1 1 1 0.9528 0.6540 1.0904 0.6447 0.8431 0.9534 0.8539 0.7321 0.7743 0.6276 1 5 0 0 0 0 0 0 0 0 0 
6 20 5 1 1 1 1 1 13.4184 2.2202 3.1731 0.4313 7.4547 1 0 1 1 1 1 1 1 1 0 1 0.8310 1.0569 0.6652 0.9272 0.6546 0.6836 0.6011 0.8420 0.8084 0.8441 8.000000e-01 5 0 0 0 0 0 0 0 0 0 
6 21 5 1 1 1 1 1 9.7147 1.0102 3.3633 1.7726 7.6596 1 1 1 1 1 1 1 1 1 1 1 0.8960 0.6184 0.6649 0.6584 0.6854 0.5950 0.5578 0.7372 0.8533 0.7696 1 5 0 0 0 0 0 0 0 0 0 
6 22 5 1 1 1 1 1 15.3911 10.1604 1.3785 0.3706 1.9177 1 1 0 1 1 1 1 0 1 0 1 0.6720 0.8629 0.6914 0.9197 0.6917 0.8069 0.6690 0.9548 0.6554 0.9072 7.000000e-01 5 0 0 0 0 0 0 0 0 0 
6 23 5 1 1 1 1 1 7.8175 0.3811 0.6796 3.2046 1.2571 1 1 1 1 1 1 1 1 1 1 1 0.7246 0.5170 0.6040 0.6824 0.7416 0.8861 0.8022 0.6994 0.6720 0.7802 1 5 0 0 0 0 0 0 0 0 0 
6 24 5 1 1 1 1 1 17.8622 10.6217 0.4822 1.0527 0.8426 1 1 1 0 1 1 1 1 1 1 1 0.6806 0.5541 0.1249 0.7774 0.6982 0.7091 0.8286 0.8689 1.1532 0.5715 9.000000e-01 5 0 0 0 0 0 0 0 0 0 
6 25 5 1 1 1 1 1 3.6423 4.9191 6.4617 4.5212 1.5542 1 1 1 1 1 0 1 1 0 1 1 0.8283 0.7597 0.6111 0.8505 0.5770 0.6975 0.7763 1.0069 0.7079 0.8461 8.000000e-01 5 0 0 0 0 0 0 0 0 0 
6 26 5 1 1 0 0 1 4.0989 0.4645 7.1994 2.2467 0.2356 6.000000e-01 0 1 1 1 0 1 1 1 1 1 0.8584 0.8675 0.6520 0.7481 0.6276 0.6854 0.6901 0.7249 0.8693 0.7813 8.000000e-01 3 2 0 0 0 0 0 0 0 0 
6 27 5 1 1 1 1 1 3.9173 0.4250 3.6232 0.4448 0.9569 1 1 1 1 0 1 1 1 1 1 1 0.8611 0.6112 0.8290 1.0142 0.7000 0.5986 0.7412 0.6070 1.0365 0.6032 9.000000e-01 5 0 0 0 0 0 0 0 0 0 
6 28 5 1 1 1 1 1 7.2951 4.8435 2.6247 0.3448 0.4578 1 1 1 1 1 1 1 1 1 1 1 0.6408 0.6793 0.5910 0.7224 0.7301 0.6294 0.6026 0.7508 0.6179 0.9232 1 5 0 0 0 0 0 0 0 0 0 
6 29 5 1 1 1 1 1 19.7585 7.9191 0.4911 0.4523 0.3434 1 1 1 1 1 1 1 1 1 1 1 0.7837 0.5466 0.6666 0.9032 0.6686 0.5547 0.4917 0.7988 0.6183 0.4819 1 5 0 0 0 0 0 0 0 0 0 
6 30 5 1 1 1 1 1 2.4558 2.4277 5.5313 6.3642 2.2062 1 1 1 1 1 1 1 1 1 1 1 0.7306 0.9042 0.5396 0.8385 0.8829 0.6716 0.9269 0.8617 0.5871 0.6016 1 5 0 0 0 0 0 0 0 0 0 
6 31 5 1 1 1 1 1 5.1696 0.3107 0.2637 3.0623 0.2761 1 1 1 1 0 1 1 1 1 0 1 0.8853 0.5754 0.6570 0.7833 0.9662 0.9435 0.7693 0.5559 0.7380 0.7406 8.000000e-01 5 0 0 0 0 0 0 0 0 0 
6 32 5 1 1 1 1 1 1.9528 0.7039 1.6444 11.0791 0.3934 1 1 1 0 1 1 1 1 1 1 1 0.7395 0.6018 1.0033 1.0370 0.8984 0.5647 0.6853 0.5662 0.5849 0.7847 9.000000e-01 5 0 0 0 0 0 0 0 0 0 
6 33 5 1 1 1 1 1 4.4490 0.5115 1.5378 0.2831 0.4008 1 1 1 1 1 1 1 1 0 1 1 0.6408 0.5489 0.8331 0.8131 0.6409 0.6424 0.7402 0.7157 0.6449 0.6789 9.000000e-01 5 0 0 0 0 0 0 0 0 0 
6 34 5 1 1 1 1 1 8.8204 0.2447 6.5779 2.1417 4.6014 1 1 1 1 1 1 1 1 1 1 1 0.7217 0.5724 0.6437 0.7374 0.6236 0.5851 0.7419 0.6746 0.5859 0.7664 1 5 0 0 0 0 0 0 0 0 0 
6 35 5 1 1 1 1 1 4.4689 1.6237 0.8238 2.3035 8.9308 1 1 1 1 1 1 1 1 0 1 1 1.0360 1.3657 0.9609 0.6869 0.5916 0.5976 0.9172 0.9801 1.1358 0.8038 9.000000e-01 5 0 0 0 0 0 0 0 0 0 
6 36 5 1 1 1 1 1 4.7578 5.1397 0.3702 0.2638 2.0745 1 1 1 1 1 0 1 1 1 1 1 0.8542 0.6137 0.9097 1.3495 0.8372 0.6325 0.6566 0.5918 0.7917 0.6497 9.000000e-01 5 0 0 0 0 0 0 0 0 0 
6 37 5 1 1 1 1 1 17.3376 0.4167 2.1143 0.2757 38.7916 1 1 1 0 1 0 1 1 1 1 1 0.6429 0.7012 1.0022 0.6267 0.6860 0.7219 0.5212 0.7383 0.8469 1.1879 8.000000e-01 5 0 0 0 0 0 0 0 0 0 
6 38 5 1 1 1 1 1 1.9440 5.4633 0.4616 1.9255 0.3189 1 1 1 1 1 1 1 1 1 0 1 0.7046 0.6758 0.6193 0.5799 0.5428 0.7867 0.8801 0.8646 0.9452 0.7268 9.000000e-01 5 0 0 0 0 0 0 0 0 0 
6 39 5 1 1 1 1 1 8.4108 0.3380 3.8161 3.3330 0.4748 1 1 1 1 1 1 1 1 1 1 1 0.7320 0.5884 0.6284 0.8314 0.7194 0.6879 0.6230 0.7398 0.7959 0.5496 1 5 0 0 0 0 0 0 0 0 0 
6 40 5 1 1 1 1 1 6.0677 0.4599 2.6405 1.3197 0.3613 1 1 1 1 1 1 1 1 1 1 1 0.8266 0.5761 0.6501 0.6695 0.5659 0.6144 0.5591 0.9154 0.5796 0.7356 1 5 0 0 0 0 0 0 0 0 0 
6 41 5 1 1 1 1 1 2.5549 0.6043 3.6352 0.4984 4.3979 1 1 1 1 1 1 1 1 1 1 1 0.7959 0.6069 0.7036 0.6808 0.6253 0.7717 0.6283 0.6897 0.7490 0.6863 1 5 0 0 0 0 0 0 0 0 0 
6 42 5 1 1 1 1 1 3.4698 1.6953 0.4905 3.4776 4.4491 1 1 1 1 1 1 1 0 1 1 1 0.6447 0.9193 0.6195 0.6122 0.8987 0.5881 0.9570 0.8068 0.6360 0.6139 9.000000e-01 5 0 0 0 0 0 0 0 0 0 
6 43 5 1 1 1 1 1 4.5840 3.8948 10.0313 1.2078 5.6810 1 1 1 1 1 1 1 1 1 1 1 0.6015 0.5915 0.8703 0.6053 0.7234 0.6478 0.8365 0.7859 0.6039 0.7738 1 5 0 0 0 0 0 0 0 0 0 
6 44 5 1 1 1 1 1 2.7936 2.1032 9.4716 0.3493 0.2957 1 1 1 1 1 1 1 1 1 1 1 0.5924 0.5010 0.6622 0.6368 0.7071 0.7283 1.1037 0.8702 0.7159 0.7857 1 5 0 0 0 0 0 0 0 0 0 
6 45 5 1 1 1 1 1 2.8562 5.3968 0.3296 1.3928 0.2533 1 1 1 1 1 1 1 1 1 1 1 0.7259 0.1479 0.5852 0.6359 0.6916 0.8041 0.7722 0.5476 0.6841 0.8380 1 5 0 0 0 0 0 0 0 0 0 
6 46 5 1 1 1 1 1 11.2416 0.4096 0.4880 3.4803 4.7331 1 1 1 1 1 1 1 1 1 1 1 0.7227 0.8105 0.5973 0.5570 0.5540 0.7545 0.7099 0.7301 0.7118 0.5725 1 5 0 0 0 0 0 0 0 0 0 
6 47 5 1 1 1 1 1 8.0535 3.1679 2.3783 0.3908 2.1907 1 1 1 1 1 1 1 1 1 1 1 0.6721 0.8091 0.7636 0.5204 0.6518 0.5662 1.1582 0.5525 0.7861 0.8988 1 5 0 0 0 0 0 0 0 0 0 
6 48 5 1 1 0 1 0 8.7386 0.4762 45.3862 0.3780 0.3762 6.000000e-01 0 1 1 1 1 1 1 1 1 1 0.8273 0.7481 0.7368 0.8823 0.5318 0.5206 0.6189 0.6798 1.0724 0.5593 9.000000e-01 3 1 0 0 1 0 0 0 0 0 
6 49 5 1 1 1 1 1 4.0083 4.7362 3.6203 0.3918 1.6022 1 1 1 1 1 1 1 1 1 1 1 0.8588 0.6644 0.3790 0.6945 0.7789 0.6485 1.0900 1.0508 1.0021 0.7771 1 5 0 0 0 0 0 0 0 0 0 
6 50 5 1 1 1 1 1 6.6487 1.5818 4.2773 4.1333 4.1540 1 1 1 0 1 1 1 1 1 1 1 0.8359 0.5497 0.7917 0.5292 0.6236 0.6842 0.8649 0.7754 0.8134 0.6678 9.000000e-01 5 0 0 0 0 0 0 0 0 0 
6 51 5 1 1 1 1 1 4.3045 3.1130 4.2093 4.6963 0.2921 1 1 1 1 1 1 1 1 1 1 0 0.6671 0.6891 0.9203 1.0067 0.7154 0.7565 0.6053 0.6578 0.9439 0.9871 9.000000e-01 5 0 0 0 0 0 0 0 0 0 
6 52 5 1 1 1 1 1 11.9962 0.2813 1.8160 4.1856 0.5101 1 1 1 1 1 0 1 1 1 1 1 0.7773 0.5797 0.6496 0.7555 0.5506 0.4718 0.7604 0.8439 0.7335 0.6522 9.000000e-01 5 0 0 0 0 0 0 0 0 0 
6 53 5 1 1 1 1 1 5.5189 2.3778 0.3900 0.2372 0.3442 1 1 1 1 1 1 1 1 1 1 1 0.6904 0.9215 0.7757 0.8302 0.6052 0.6832 0.7806 0.6212 0.8866 0.5465 1 5 0 0 0 0 0 0 0 0 0 
6 54 5 1 1 1 1 1 2.8210 3.7679 0.2661 0.2227 2.4054 1 1 1 1 1 1 1 1 1 1 1 0.7289 0.5755 0.5850 0.6067 0.6142 0.8044 0.6123 0.8259 0.6958 0.7517 1 5 0 0 0 0 0 0 0 0 0 
6 55 5 1 1 1 1 1 6.7348 7.1379 1.5380 1.8940 5.4480 1 1 1 1 1 0 1 1 1 1 1 0.6154 0.5789 0.4931 0.7126 0.7289 0.5477 0.5627 0.5932 0.9308 0.5754 9.000000e-01 5 0 0 0 0 0 0 0 0 0 
6 56 5 1 1 1 1 1 13.5578 4.0012 8.2941 7.8414 2.4020 1 1 1 1 1 1 1 1 1 1 1 0.6882 0.8482 0.7174 0.7007 0.6910 0.8998 0.8557 0.7294 0.5370 0.6493 1 5 0 0 0 0 0 0 0 0 0 
6 57 5 1 1 1 1 1 3.2311 0.4338 0.3266 0.4543 1.3767 1 1 1 1 1 1 1 1 1 1 1 0.6485 0.7021 0.6750 0.7082 0.9175 0.7907 0.6920 0.6411 0.6902 0.6907 1 5 0 0 0 0 0 0 0 0 0 
6 58 5 1 1 1 1 1 3.7231 1.6583 1.0956 2.8254 0.2914 1 1 1 1 1 1 1 1 1 1 1 0.6687 0.6522 0.6295 0.5880 0.8824 0.8502 0.8656 0.8909 0.5759 0.5285 1 5 0 0 0 0 0 0 0 0 0 
6 59 5 1 1 1 1 1 6.7995 0.2734 1.6155 9.8929 3.1366 1 1 1 1 1 1 1 1 1 1 0 0.7398 0.7606 0.5278 1.0434 0.6494 0.6765 0.5714 0.5433 0.5830 0.6957 9.000000e-01 5 0 0 0 0 0 0 0 0 0 
6 60 5 1 1 1 1 1 5.8314 2.0274 4.5162 0.3930 0.3708 1 1 1 1 1 1 1 1 1 1 1 0.7124 0.6539 0.6197 0.6510 0.8781 0.6352 0.6525 0.5347 0.5794 0.5807 1 5 0 0 0 0 0 0 0 0 0 
6 61 5 1 1 1 1 1 5.4904 0.2574 0.8005 2.1775 1.0057 1 1 0 1 1 1 1 1 1 1 1 0.6678 0.7911 0.5006 0.6494 0.4990 0.9046 0.9072 0.8471 0.8142 0.6273 9.000000e-01 5 0 0 0 0 0 0 0 0 0 
6 62 5 1 1 1 1 1 9.8187 6.2643 3.2989 4.5692 11.7327 1 1 1 1 1 1 1 1 1 1 1 0.6294 0.6953 0.7232 0.6166 0.5606 0.8815 0.5388 0.5634 0.5443 0.6024 1 5 0 0 0 0 0 0 0 0 0 
6 63 5 1 1 1 1 1 12.9381 0.4183 0.7542 2.2806 1.9020 1 1 1 1 1 1 1 1 1 1 1 0.9048 0.5604 0.5291 0.5353 0.5791 0.7027 0.6493 0.5366 0.5940 0.5810 1 5 0 0 0 0 0 0 0 0 0 
6 64 5 1 1 1 1 1 18.1487 12.6188 0.3100 2.1529 2.7996 1 1 0 1 1 1 1 1 1 1 1 0.6015 0.6692 0.5356 0.6528 0.5374 0.6686 0.8321 0.8965 0.9950 0.6534 9.000000e-01 5 0 0 0 0 0 0 0 0 0 
6 65 5 1 1 1 1 1 2.2241 0.3756 1.4705 0.3592 0.4518 1 0 1 1 1 1 1 1 1 1 1 0.8783 0.5799 0.6071 0.4984 0.5994 0.5996 0.5361 0.6588 0.5680 0.6301 9.000000e-01 5 0 0 0 0 0 0 0 0 0 
6 66 5 1 1 1 1 1 3.2046 2.9788 0.6508 0.2338 0.2673 1 1 1 1 1 1 0 1 1 1 1 0.7827 0.7516 0.6449 0.8287 0.5763 0.7911 0.6059 0.6318 0.5998 0.7303 9.000000e-01 5 0 0 0 0 0 0 0 0 0 
6 67 5 1 1 1 1 1 3.6188 3.4824 3.8719 1.0282 0.2724 1 1 1 1 1 1 1 1 1 1 1 0.5009 0.7362 0.6049 0.7051 0.5456 0.6167 0.5020 0.7977 0.7843 0.7548 1 5 0 0 0 0 0 0 0 0 0 
6 68 5 1 1 1 1 1 5.5928 4.4955 0.3909 4.2874 1.1106 1 1 1 0 1 1 1 1 1 1 1 0.7205 0.8427 0.9308 0.6618 0.6820 0.6418 0.5074 0.8061 0.9558 0.6695 9.000000e-01 5 0 0 0 0 0 0 0 0 0 
6 69 5 1 1 1 1 1 3.2975 3.1937 2.1257 0.3338 0.3900 1 1 1 1 1 1 1 1 1 1 1 0.8084 0.7511 0.6008 0.5456 0.5870 0.9238 0.6045 0.7729 0.6615 0.8979 1 5 0 0 0 0 0 0 0 0 0 
6 70 5 1 1 1 1 1 3.1672 1.0609 0.9085 5.2098 5.6726 1 1 0 1 1 1 1 1 1 1 1 0.6187 0.5926 0.7064 0.5681 0.8371 0.7837 0.6224 0.5183 0.6839 0.6552 9.000000e-01 5 0 0 0 0 0 0 0 0 0 
6 71 5 1 1 1 1 1 5.4756 11.6467 0.3832 0.4305 1.8682 1 1 1 1 1 1 1 1 1 1 1 0.7976 0.5460 0.5972 0.8074 0.5284 0.7674 0.6295 0.5583 0.7254 0.5875 1 5 0 0 0 0 0 0 0 0 0 
6 72 5 1 1 1 1 1 5.6652 1.0651 0.4649 1.4362 2.4592 1 1 1 1 1 1 1 1 1 1 0 0.7139 0.6857 0.7712 0.6634 0.6614 0.8136 0.7012 0.7335 0.5839 0.8755 9.000000e-01 5 0 0 0 0 0 0 0 0 0 
6 73 5 1 1 1 1 1 2.1669 1.0325 1.2620 0.9757 5.7651 1 1 1 1 1 0 1 1 1 1 1 0.6701 0.6153 0.6161 0.5038 0.5070 0.5270 0.8165 0.9508 1.1547 0.6395 9.000000e-01 5 0 0 0 0 0 0 0 0 0 
6 74 5 1 1 1 1 1 5.4633 4.9337 7.7185 0.3974 4.4644 1 1 1 1 1 1 1 1 1 1 1 0.7010 0.6856 0.5978 0.5803 0.5351 0.7706 0.6817 0.7111 0.6621 0.6031 1 5 0 0 0 0 0 0 0 0 0 
6 75 5 1 1 1 1 1 4.0519 13.8505 6.8885 1.6440 1.7656 1 1 1 1 1 1 1 1 1 1 1 0.7712 0.5845 0.6779 0.7145 0.8617 0.6316 0.7464 0.5498 0.9440 0.7516 1 5 0 0 0 0 0 0 0 0 0 
6 76 5 1 1 1 1 1 9.7038 0.3118 0.3280 2.9158 0.3710 1 1 1 1 1 1 1 1 1 1 1 0.6695 0.7171 0.7349 0.7922 0.7900 0.8414 1.0756 0.7961 0.6645 1.1359 1 5 0 0 0 0 0 0 0 0 0 
6 77 5 1 1 1 1 1 3.7128 8.1883 1.0901 1.9198 0.1864 1 1 1 1 1 0 1 1 1 1 1 0.8357 0.7502 0.6595 0.8825 0.8543 0.8680 0.6555 0.8132 0.5991 0.5403 9.000000e-01 5 0 0 0 0 0 0 0 0 0 
6 78 5 1 1 1 1 1 3.8056 0.2280 2.3799 3.1597 3.4015 1 1 1 1 1 1 1 1 1 1 1 0.7308 0.6068 0.5970 0.6283 0.7216 0.6054 0.6175 0.5930 0.7102 0.7620 1 5 0 0 0 0 0 0 0 0 0 
6 79 5 1 1 1 1 1 1.8294 4.4439 2.5459 7.8210 0.6306 1 1 1 0 1 1 1 1 1 1 1 0.9876 0.7946 1.2870 0.9839 0.7092 0.5585 0.5817 0.7042 0.7062 0.6774 9.000000e-01 5 0 0 0 0 0 0 0 0 0 
6 80 5 1 1 1 1 1 3.9169 0.4213 0.8217 4.6060 14.1923 1 1 1 1 1 0 1 1 1 1 1 0.8118 0.5247 0.7969 0.5689 0.7379 0.5396 0.6104 0.6908 0.5820 0.8693 9.000000e-01 5 0 0 0 0 0 0 0 0 0 
